File: inputs/coatings/quoted_old/materionJ+JHGapDBS.csv
Preliminary design data,,
1901,,
Wavelength (nm),%R,%T
600,0.9693202,3.06E-02
601.4,0.9548851,4.51E-02
602.8,0.9186469,8.13E-02
604.2,0.8256185,0.1742926
605.6,0.6506538,0.349208
607,0.5302557,0.4695624
608.4,0.4636634,0.5358135
609.8,0.7364075,0.263382
611.2,0.8865947,0.1133255
612.6,0.9463077,5.36E-02
614,0.969744,3.02E-02
615.4,0.9794326,2.05E-02
616.8,0.9832729,1.67E-02
618.2,0.9838,0.0161732
619.6,0.9811946,1.88E-02
621,0.973232,2.67E-02
622.4,0.9497674,5.02E-02
623.8,0.7529908,0.2468328
625.2,0.7007038,0.2991496
626.6,0.5052588,0.4945601
628,0.5326576,0.4670331
629.4,0.6309021,0.3686594
630.8,0.8618927,0.1379367
632.2,0.9565359,4.34E-02
633.6,0.9824169,1.75E-02
635,0.9908577,9.11E-03
636.4,0.9941499,5.83E-03
637.8,0.9955131,4.47E-03
639.2,0.9959036,4.08E-03
640.6,0.9954823,4.50E-03
642,0.9936686,6.31E-03
643.4,0.9869087,1.31E-02
644.8,0.9290106,7.08E-02
646.2,0.9119257,8.78E-02
647.6,0.9887153,1.12E-02
649,0.9947274,5.21E-03
650.4,0.9978954,2.09E-03
651.8,0.9986379,1.35E-03
653.2,0.9989452,1.05E-03
654.6,0.9990667,9.25E-04
656,0.9990731,9.18E-04
657.4,0.9989721,1.02E-03
658.8,0.9987217,1.27E-03
660.2,0.9981907,1.80E-03
661.6,0.9969957,2.99E-03
663,0.9937104,6.27E-03
664.4,0.9800712,0.0198775
665.8,0.8261966,0.1734681
667.2,0.8966275,0.1032027
668.6,0.9707371,0.0291801
670,0.9743758,2.55E-02
671.4,0.9876279,1.23E-02
672.8,0.9884616,1.15E-02
674.2,0.9867173,1.33E-02
675.6,0.9818331,1.82E-02
677,0.9704264,2.96E-02
678.4,0.9414656,5.85E-02
679.8,0.8569145,0.1430339
681.2,0.6416924,0.3582113
682.6,0.5420505,0.4578439
684,0.5285043,0.4713196
685.4,0.5853169,0.4145606
686.8,0.7104384,0.2895097
688.2,0.740061,0.2598972
689.6,0.7717336,0.2282295
691,0.8118948,0.1880731
692.4,0.8500692,0.1499032
693.8,0.8726349,0.1273398
695.2,0.8779464,0.1220284
696.6,0.8665603,0.1334123
698,0.8346236,0.1653443
699.4,0.7750515,0.2249079
700.8,0.6985779,0.3013695
702.2,0.6943941,0.3055508
703.6,0.768201,0.2317511
705,0.8304954,0.1694594
706.4,0.8679156,0.1320375
707.8,0.8878452,0.1121026
709.2,0.8970137,0.1029257
710.6,0.8995576,0.1003706
712,0.8979554,0.1019587
713.4,0.8934017,0.1064951
714.8,0.8859204,0.1139572
716.2,0.876564,0.1233021
717.6,0.8696568,0.1302191
719,0.8664385,0.1334611
720.4,0.8653291,0.1345924
721.8,0.8691452,0.1307924
723.2,0.879451,0.1204981
724.6,0.894105,0.1058525
726,0.911086,8.89E-02
727.4,0.9268848,7.31E-02
728.8,0.9387543,6.12E-02
730.2,0.9459991,5.40E-02
731.6,0.9487813,5.12E-02
733,0.9469187,5.31E-02
734.4,0.9389641,6.10E-02
735.8,0.9205849,7.94E-02
737.2,0.8800101,0.1199261
738.6,0.7871773,0.2127136
740,0.6283305,0.3714825
741.4,0.6535281,0.3462899
742.8,0.7804856,0.2193598
744.2,0.5434411,0.4559547
745.6,0.8378605,0.1619981
747,0.9166527,8.33E-02
748.4,0.9351531,6.48E-02
749.8,0.9389235,6.11E-02
751.2,0.9342439,6.57E-02
752.6,0.9240194,0.0759579
754,0.9153836,0.0845936
755.4,0.9040197,9.60E-02
756.8,0.8822861,0.1176895
758.2,0.8596439,0.14033
759.6,0.8519472,0.1480258
761,0.8599375,0.1400351
762.4,0.8708614,0.1291097
763.8,0.8755143,0.1244534
765.2,0.8698001,0.130161
766.6,0.8499649,0.1499849
768,0.8097537,0.1901769
769.4,0.7431762,0.2567237
770.8,0.6662178,0.3336394
772.2,0.6250973,0.3746916
773.6,0.5157881,0.4837349
775,0.6688157,0.3309611
776.4,0.7667512,0.2331401
777.8,0.7788199,0.2210819
779.2,0.6822463,0.3175449
780.6,0.606287,0.393356
782,0.6851429,0.3147322
783.4,0.5520869,0.4477841
784.8,0.543947,0.4559242
786.2,0.7383367,0.2615822
787.6,0.862102,0.1378491
789,0.9166352,8.33E-02
790.4,0.9411372,5.88E-02
791.8,0.9519661,4.80E-02
793.2,0.9548025,4.52E-02
794.6,0.9502359,4.97E-02
796,0.9330263,6.69E-02
797.4,0.8762459,0.1235296
798.8,0.6832511,0.3160836
800.2,0.7343521,0.2653781
801.6,0.9313477,6.86E-02
803,0.9750835,2.49E-02
804.4,0.9880378,1.19E-02
805.8,0.9931453,6.84E-03
807.2,0.9955571,4.43E-03
808.6,0.9968368,3.15E-03
810,0.9975682,2.42E-03
811.4,0.9980019,0.0019874
812.8,0.9982555,1.73E-03
814.2,0.9983863,1.60E-03
815.6,0.9984187,1.57E-03
817,0.9983543,1.63E-03
818.4,0.99817,1.82E-03
819.8,0.9978016,2.18E-03
821.2,0.9970921,2.89E-03
822.6,0.9956098,4.36E-03
824,0.9918655,8.08E-03
825.4,0.9781549,2.17E-02
826.8,0.9057713,0.093689
828.2,0.9633064,3.64E-02
829.6,0.9763459,0.0218752
831,0.995321,4.61E-03
832.4,0.99742,2.55E-03
833.8,0.9983021,1.68E-03
835.2,0.9987521,1.23E-03
836.6,0.9990045,9.83E-04
838,0.9991516,8.37E-04
839.4,0.9992348,7.54E-04
840.8,0.9992732,7.16E-04
842.2,0.9992753,7.14E-04
843.6,0.9992417,7.47E-04
845,0.9991657,8.22E-04
846.4,0.9990307,9.56E-04
847.8,0.9988013,1.18E-03
849.2,0.9984009,1.58E-03
850.6,0.9976447,2.33E-03
852,0.9960011,3.96E-03
853.4,0.9914448,8.48E-03
854.8,0.9718127,2.80E-02
856.2,0.9078776,9.15E-02
857.6,0.9756283,2.41E-02
859,0.9880416,1.14E-02
860.4,0.9956641,4.27E-03
861.8,0.9973549,2.61E-03
863.2,0.9981266,1.85E-03
864.6,0.9985391,1.44E-03
866,0.9987763,1.21E-03
867.4,0.9989143,1.07E-03
868.8,0.9989888,9.98E-04
870.2,0.9990166,9.70E-04
871.6,0.9990051,9.82E-04
873,0.9989545,1.03E-03
874.4,0.9988599,1.13E-03
875.8,0.9987088,1.28E-03
877.2,0.9984787,1.50E-03
878.6,0.9981291,1.85E-03
880,0.9975855,2.39E-03
881.4,0.996705,3.27E-03
882.8,0.9951833,4.79E-03
884.2,0.9923069,7.65E-03
885.6,0.9861425,1.38E-02
887,0.9705248,2.94E-02
888.4,0.9264774,7.33E-02
889.8,0.8810261,0.1186131
891.2,0.9322418,6.75E-02
892.6,0.9585248,4.07E-02
894,0.9768201,0.0229266
895.4,0.9847822,1.51E-02
896.8,0.9881846,1.18E-02
898.2,0.9899808,9.99E-03
899.6,0.9909345,9.04E-03
901,0.9913582,8.62E-03
902.4,0.9913913,8.59E-03
903.8,0.9910873,8.89E-03
905.2,0.9904464,9.53E-03
906.6,0.9894269,1.06E-02
908,0.9879435,1.20E-02
909.4,0.9858587,1.41E-02
910.8,0.9829645,1.70E-02
912.2,0.9789561,2.10E-02
913.6,0.9733988,2.66E-02
915,0.9656906,3.43E-02
916.4,0.955048,4.49E-02
917.8,0.9405605,5.94E-02
919.2,0.9213976,7.86E-02
920.6,0.8972734,0.1026895
922,0.8689474,0.1310122
923.4,0.8383576,0.1615986
924.8,0.8080369,0.191916
926.2,0.7798128,0.2201371
927.6,0.7539999,0.2459468
929,0.7296142,0.2703292
930.4,0.7051898,0.2947499
931.8,0.6794995,0.3204359
933.2,0.6519478,0.3479827
934.6,0.6226814,0.3772436
936,0.5923913,0.4075275
937.4,0.561698,0.4382134
938.8,0.5298244,0.4700776
940.2,0.4921522,0.5077366
941.6,0.4364073,0.5634617
943,0.3418936,0.6579472
944.4,0.2066431,0.7931705
945.8,9.53E-02,0.9044662
947.2,5.77E-02,0.9421768
948.6,5.91E-02,0.9407629
950,6.41E-02,0.9357441
951.4,6.30E-02,0.93689
952.8,0.0574403,0.9424351
954.2,5.16E-02,0.9482332
955.6,4.85E-02,0.9513548
957,4.88E-02,0.9511169
958.4,5.13E-02,0.9485763
959.8,5.45E-02,0.9454165
961.2,5.68E-02,0.9430505
962.6,5.77E-02,0.9421853
964,5.71E-02,0.9428163
965.4,5.55E-02,0.9443977
966.8,5.38E-02,0.946127
968.2,0.0526298,0.9472672
969.6,0.0524887,0.9474095
971,5.33E-02,0.9465811
972.4,5.47E-02,0.9451702
973.8,5.62E-02,0.9437312
975.2,5.71E-02,0.9427781
976.6,5.73E-02,0.9426409
978,5.65E-02,0.9434064
979.4,5.50E-02,0.9449238
980.8,5.31E-02,0.9468493
982.2,5.12E-02,0.9487243
983.6,0.0498362,0.9500695
985,4.94E-02,0.950495
986.4,5.01E-02,0.9498054
987.8,5.18E-02,0.9480627
989.2,0.0543264,0.9455819
990.6,5.71E-02,0.9428566
992,5.95E-02,0.9404398
993.4,6.11E-02,0.9388235
994.8,6.16E-02,0.9383432
996.2,6.08E-02,0.9391274
997.6,5.88E-02,0.9410847
999,0.0559861,0.9439261
1000.4,5.27E-02,0.947207
1001.8,4.95E-02,0.9503942
1003.2,4.70E-02,0.9529512
1004.6,4.55E-02,0.9544209
1006,4.54E-02,0.9545146
1007.4,4.67E-02,0.9531711
1008.8,0.0493383,0.9505752
1010.2,5.28E-02,0.9471211
1011.6,5.66E-02,0.9433386
1013,6.01E-02,0.9397947
1014.4,6.29E-02,0.9370019
1015.8,6.46E-02,0.9353462
1017.2,6.49E-02,0.93505
1018.6,6.38E-02,0.9361452
1020,6.14E-02,0.9384788
1021.4,5.82E-02,0.9417292
1022.8,5.45E-02,0.9454469
1024.2,5.08E-02,0.9491028
1025.6,4.78E-02,0.9521568
1027,4.58E-02,0.9541369
1028.4,4.52E-02,0.9547172
1029.8,0.0461402,0.953777
1031.2,4.85E-02,0.9514241
1032.6,5.19E-02,0.9479737
1034,5.60E-02,0.9438918
1035.4,6.02E-02,0.939716
1036.8,6.39E-02,0.9359742
1038.2,6.68E-02,0.9331174
1039.6,6.84E-02,0.9314719
1041,6.87E-02,0.9312132
1042.4,6.76E-02,0.9323535
1043.8,0.0651748,0.9347465
1045.2,0.0618225,0.9380986
1046.6,5.79E-02,0.941995
1048,5.40E-02,0.9459382
1049.4,5.05E-02,0.9494049
1050.8,4.80E-02,0.9519159
1052.2,4.68E-02,0.9531094
1053.6,4.71E-02,0.9528027
1055,4.89E-02,0.9510246
1056.4,5.19E-02,0.9480104
1057.8,5.58E-02,0.9441589
1059.2,6.00E-02,0.9399657
1060.6,6.40E-02,0.9359494
1062,6.73E-02,0.9325799
1063.4,0.0696953,0.9302285
1064.8,7.08E-02,0.9291455
1066.2,7.05E-02,0.9294403
1067.6,6.88E-02,0.9310755
1069,6.61E-02,0.9338694
1070.4,6.24E-02,0.9375049
1071.8,5.84E-02,0.9415518
1073.2,5.44E-02,0.9455015
1074.6,5.11E-02,0.9488236
1076,4.89E-02,0.9510339
1077.4,4.81E-02,0.9517739
1078.8,4.90E-02,0.9508751
1080.2,5.15E-02,0.9483957
1081.6,5.53E-02,0.9446096
1083,5.99E-02,0.9399772
1084.4,6.49E-02,0.9350613
1085.8,6.95E-02,0.9304394
1087.2,7.33E-02,0.9266393
1088.6,7.58E-02,0.9240831
1090,7.69E-02,0.9230551
1091.4,7.62E-02,0.9236843
1092.8,7.40E-02,0.9259373
1094.2,7.03E-02,0.9296158
1095.6,6.56E-02,0.9343615
1097,6.03E-02,0.9396662
1098.4,5.50E-02,0.9449015
1099.8,5.05E-02,0.949374
1101.2,4.75E-02,0.9524051
1102.6,4.65E-02,0.9534621
1104,4.77E-02,0.9522367
1105.4,5.12E-02,0.948732
1106.8,0.0566414,0.9432815
1108.2,6.34E-02,0.9365015
1109.6,7.07E-02,0.9291858
1111,7.77E-02,0.9221854
1112.4,8.36E-02,0.916292
1113.8,0.0877732,0.9121532
1115.2,8.97E-02,0.9102198
1116.6,8.92E-02,0.9107165
1118,8.63E-02,0.9136261
1119.4,8.13E-02,0.9186754
1120.8,7.46E-02,0.9253348
1122.2,6.71E-02,0.9327902
1123.6,5.99E-02,0.9399767
1125,5.42E-02,0.9456804
1126.4,5.12E-02,0.9487038
1127.8,5.18E-02,0.9481121
1129.2,0.0564191,0.9435015
1130.6,6.47E-02,0.9351869
1132,7.57E-02,0.9242293
1133.4,8.77E-02,0.9122707
1134.8,9.87E-02,0.9012554
1136.2,0.1067975,0.893124
1137.6,0.1104011,0.889519
1139,0.108462,0.8914555
1140.4,0.1011528,0.8987606
1141.8,9.08E-02,0.9090807
1143.2,8.33E-02,0.9165648
1144.6,8.86E-02,0.9112824
1146,0.117077,0.8828115
1147.4,0.1707614,0.8291274
1148.8,0.2385561,0.7613377
1150.2,0.3052458,0.6946551
1151.6,0.3633016,0.6366062
1153,0.4141807,0.5857331
1154.4,0.463068,0.5368508
1155.8,0.5141841,0.4857393
1157.2,0.5687242,0.4312036
1158.6,0.6250395,0.3748928
1160,0.6800474,0.3198894
1161.4,0.7308137,0.2691274
1162.8,0.7755062,0.224439
1164.2,0.813469,0.18648
1165.6,0.8449409,0.1550113
1167,0.8706337,0.1293213
1168.4,0.8914357,0.1085218
1169.8,0.9082229,9.17E-02
1171.2,0.9217718,7.82E-02
1172.6,0.9327357,6.72E-02
1174,0.941641,5.83E-02
1175.4,0.9489077,5.11E-02
1176.8,0.9548664,4.51E-02
1178.2,0.959776,0.04019
1179.6,0.9638404,3.61E-02
1181,0.9672183,3.27E-02
1182.4,0.9700351,2.99E-02
1183.8,0.9723898,2.76E-02
1185.2,0.9743605,2.56E-02
1186.6,0.9760097,2.40E-02
1188,0.977387,2.26E-02
1189.4,0.9785319,2.14E-02
1190.8,0.9794763,2.05E-02
1192.2,0.9802457,1.97E-02
1193.6,0.9808606,0.0191018
1195,0.9813372,1.86E-02
1196.4,0.9816886,1.83E-02
1197.8,0.981925,1.80E-02
1199.2,0.9820544,1.79E-02
1200.6,0.9820832,1.79E-02
1202,0.9820162,1.79E-02
1203.4,0.9818567,1.81E-02
1204.8,0.9816075,1.83E-02
1206.2,0.9812707,1.87E-02
1207.6,0.9808481,1.91E-02
1209,0.9803419,1.96E-02
1210.4,0.9797544,0.0201761
1211.8,0.9790893,0.0208359
1213.2,0.9783518,2.16E-02
1214.6,0.9775496,2.24E-02
1216,0.9766942,2.32E-02
1217.4,0.9758025,2.41E-02
1218.8,0.9748984,2.50E-02
1220.2,0.9740146,2.59E-02
1221.6,0.9731922,2.67E-02
1223,0.9724764,2.74E-02
1224.4,0.9719096,2.80E-02
1225.8,0.9715206,2.83E-02
1227.2,0.9713163,2.85E-02
1228.6,0.9712817,2.86E-02
1230,0.9713858,2.85E-02
1231.4,0.9715913,2.83E-02
1232.8,0.9718624,2.80E-02
1234.2,0.9721684,2.77E-02
1235.6,0.9724851,2.74E-02
1237,0.9727935,2.71E-02
1238.4,0.9730796,2.68E-02
1239.8,0.9733325,0.0265723
1241.2,0.9735445,2.64E-02
1242.6,0.9737102,2.62E-02
1244,0.973826,0.0260843
1245.4,0.9738904,2.60E-02
1246.8,0.9739034,2.60E-02
1248.2,0.9738668,2.60E-02
1249.6,0.9737839,0.0261257
1251,0.9736596,2.62E-02
1252.4,0.9735003,2.64E-02
1253.8,0.973314,2.66E-02
1255.2,0.9731106,2.68E-02
1256.6,0.9729016,2.70E-02
1258,0.9727008,2.72E-02
1259.4,0.9725242,2.74E-02
1260.8,0.9723904,2.75E-02
1262.2,0.9723197,2.76E-02
1263.6,0.9723333,2.75E-02
1265,0.9724503,2.74E-02
1266.4,0.9726839,2.72E-02
1267.8,0.9730368,2.68E-02
1269.2,0.9734997,2.64E-02
1270.6,0.9740517,2.58E-02
1272,0.974665,2.52E-02
1273.4,0.9753098,2.46E-02
1274.8,0.9759583,2.39E-02
1276.2,0.9765874,2.33E-02
1277.6,0.9771788,2.27E-02
1279,0.9777191,2.22E-02
1280.4,0.9781983,2.17E-02
1281.8,0.9786091,2.13E-02
1283.2,0.978946,2.10E-02
1284.6,0.9792048,0.0207164
1286,0.9793817,2.05E-02
1287.4,0.9794732,2.05E-02
1288.8,0.9794758,2.04E-02
1290.2,0.9793858,0.020539
1291.6,0.979199,2.07E-02
1293,0.9789108,2.10E-02
1294.4,0.9785161,2.14E-02
1295.8,0.9780096,2.19E-02
1297.2,0.9773861,2.25E-02
1298.6,0.9766406,2.33E-02
1300,0.9757704,2.41E-02
1301.4,0.9747758,2.51E-02
1302.8,0.9736629,0.0262289
1304.2,0.9724468,2.74E-02
1305.6,0.9711555,2.87E-02
1307,0.9698336,3.00E-02
1308.4,0.9685425,0.0313169
1309.8,0.9673547,3.25E-02
1311.2,0.9663443,3.35E-02
1312.6,0.9655776,3.43E-02
1314,0.9651088,3.48E-02
1315.4,0.9649799,3.49E-02
1316.8,0.9652198,3.47E-02
1318.2,0.9658352,0.0340502
1319.6,0.9668069,3.31E-02
1321,0.9680867,3.18E-02
1322.4,0.9696054,3.03E-02
1323.8,0.9712822,2.86E-02
1325.2,0.9730366,2.69E-02
1326.6,0.9747987,2.51E-02
1328,0.9765124,2.34E-02
1329.4,0.9781374,2.18E-02
1330.8,0.9796487,2.03E-02
1332.2,0.9810325,1.89E-02
1333.6,0.9822847,0.0176688
1335,0.9834066,1.66E-02
1336.4,0.984404,1.56E-02
1337.8,0.9852846,1.47E-02
1339.2,0.9860568,1.39E-02
1340.6,0.9867298,1.32E-02
1342,0.9873118,1.27E-02
1343.4,0.987811,1.22E-02
1344.8,0.9882341,1.17E-02
1346.2,0.9885874,1.14E-02
1347.6,0.988876,1.11E-02
1349,0.9891044,1.09E-02
1350.4,0.9892759,1.07E-02
1351.8,0.9893932,1.06E-02
1353.2,0.9894583,1.05E-02
1354.6,0.9894723,1.05E-02
1356,0.9894356,1.05E-02
1357.4,0.9893479,1.06E-02
1358.8,0.9892083,1.08E-02
1360.2,0.989015,1.10E-02
1361.6,0.9887657,1.12E-02
1363,0.9884571,1.15E-02
1364.4,0.9880851,1.19E-02
1365.8,0.987645,1.23E-02
1367.2,0.9871314,1.29E-02
1368.6,0.9865375,1.34E-02
1370,0.9858562,1.41E-02
1371.4,0.9850798,1.49E-02
1372.8,0.9841998,1.58E-02
1374.2,0.983208,1.68E-02
1375.6,0.9820963,1.79E-02
1377,0.9808582,1.91E-02
1378.4,0.9794897,2.05E-02
1379.8,0.9779909,2.20E-02
1381.2,0.9763712,2.36E-02
1382.6,0.9746436,0.0253423
1384,0.9728343,2.72E-02
1385.4,0.9709831,2.90E-02
1386.8,0.9691444,3.08E-02
1388.2,0.9673865,3.26E-02
1389.6,0.9657869,3.42E-02
1391,0.9644257,3.56E-02
1392.4,0.9633757,3.66E-02
1393.8,0.9626913,3.73E-02
1395.2,0.9624003,3.76E-02
1396.6,0.9624996,0.0374869
1398,0.9629569,3.70E-02
1399.4,0.9637175,3.63E-02
1400.8,0.9647151,3.53E-02
1402.2,0.965878,3.41E-02
1403.6,0.9671368,3.29E-02
1405,0.9684326,3.16E-02
1406.4,0.969718,3.03E-02
1407.8,0.970957,2.90E-02
1409.2,0.9721244,2.79E-02
1410.6,0.9732034,0.0267836
1412,0.9741839,0.0258031
1413.4,0.9750607,2.49E-02
1414.8,0.9758319,2.42E-02
1416.2,0.9764975,0.0234894
1417.6,0.9770592,2.29E-02
1419,0.9775187,2.25E-02
1420.4,0.9778777,2.21E-02
1421.8,0.9781373,2.18E-02
1423.2,0.9782977,2.17E-02
1424.6,0.9783583,2.16E-02
1426,0.978317,2.17E-02
1427.4,0.9781699,2.18E-02
1428.8,0.977912,2.21E-02
1430.2,0.9775361,2.24E-02
1431.6,0.9770336,2.30E-02
1433,0.9763947,2.36E-02
1434.4,0.9756099,2.44E-02
1435.8,0.9746716,0.0253134
1437.2,0.9735771,2.64E-02
1438.6,0.9723322,2.77E-02
1440,0.9709538,2.90E-02
1441.4,0.9694723,0.0305115
1442.8,0.9679174,3.21E-02
1444.2,0.9663146,0.0336686
1445.6,0.9646707,0.0353122
1447,0.9629683,3.70E-02
1448.4,0.9611675,3.88E-02
1449.8,0.9592135,4.08E-02
1451.2,0.9570455,4.29E-02
1452.6,0.954601,4.54E-02
1454,0.9518194,0.0481609
1455.4,0.9486393,5.13E-02
1456.8,0.9449977,5.50E-02
1458.2,0.940827,5.92E-02
1459.6,0.9360511,6.39E-02
1461,0.930577,6.94E-02
1462.4,0.924311,7.57E-02
1463.8,0.9171473,8.28E-02
1465.2,0.9089645,9.10E-02
1466.6,0.899625,0.1003478
1468,0.8889812,0.1109904
1469.4,0.8768752,0.1230949
1470.8,0.863146,0.1368227
1472.2,0.8476388,0.1523283
1473.6,0.8302138,0.1697517
1475,0.8107728,0.1891909
1476.4,0.7892792,0.2106827
1477.8,0.7657875,0.2341725
1479.2,0.7404763,0.2594817
1480.6,0.7136973,0.2862588
1482,0.6859535,0.3140008
1483.4,0.6578437,0.3421088
1484.8,0.630126,0.369825
1486.2,0.6036161,0.3963336
1487.6,0.579091,0.4208575
1489,0.5572105,0.4427371
1490.4,0.5384284,0.4615185
1491.8,0.5229495,0.476997
1493.2,0.5107248,0.4892214
1494.6,0.5014802,0.4984658
1496,0.4947786,0.5051672
1497.4,0.4900795,0.5098661
1498.8,0.4867988,0.5131465
1500.2,0.4843526,0.5155923
1501.6,0.4821815,0.5177627
1503,0.4797704,0.5201728
1504.4,0.476638,0.523304
1505.8,0.4723324,0.5276079
1507.2,0.4664183,0.5335201
1508.6,0.4584591,0.5414769
1510,0.4480094,0.5519238
1511.4,0.4346102,0.5653195
1512.8,0.417804,0.5821217
1514.2,0.3971797,0.6027416
1515.6,0.3724481,0.6274682
1517,0.3435861,0.6563248
1518.4,0.3110036,0.6889018
1519.8,0.2757137,0.7241864
1521.2,0.2394087,0.760487
1522.6,0.2043099,0.7955825
1524,0.1727946,0.827096
1525.4,0.1468334,0.8530573
1526.8,0.1275263,0.8723659
1528.2,0.1149393,0.8849559
1529.6,0.1082757,0.8916234
1531,0.1062526,0.8936507
1532.4,0.1074665,0.8924413
1533.8,0.1106463,0.8892656
1535.2,0.1147703,0.8851454
1536.6,0.1190849,0.8808342
1538,0.1230684,0.8768536
1539.4,0.1263818,0.8735428
1540.8,0.1288137,0.871113
1542.2,0.1302594,0.8696691
1543.6,0.1306826,0.8692473
1545,0.1300905,0.8698405
1546.4,0.1285287,0.8714031
1547.8,0.1260749,0.8738577
1549.2,0.1228347,0.8770984
1550.6,0.1189384,0.880995
1552,0.1145392,0.8853945
1553.4,0.1098078,0.890126
1554.8,0.1049267,0.8950074
1556.2,0.1000829,0.8998513
1557.6,9.55E-02,0.9044771
1559,9.12E-02,0.9087188
1560.4,8.75E-02,0.9124357
1561.8,8.44E-02,0.91552
1563.2,8.20E-02,0.9179032
1564.6,8.04E-02,0.9195609
1566,7.94E-02,0.9205104
1567.4,0.0791299,0.9208063
1568.8,7.94E-02,0.9205343
1570.2,8.01E-02,0.9198018
1571.6,8.12E-02,0.9187292
1573,8.25E-02,0.9174415
1574.4,8.39E-02,0.9160599
1575.8,8.52E-02,0.9146964
1577.2,0.0864899,0.9134498
1578.6,8.75E-02,0.9124026
1580,8.83E-02,0.9116203
1581.4,0.0887867,0.9111542
1582.8,8.89E-02,0.9110324
1584.2,8.87E-02,0.911273
1585.6,8.81E-02,0.9118805
1587,8.71E-02,0.9128484
1588.4,8.58E-02,0.9141601
1589.8,8.42E-02,0.9157911
1591.2,8.22E-02,0.917709
1592.6,8.01E-02,0.9198763
1594,7.77E-02,0.9222499
1595.4,7.52E-02,0.9247818
1596.8,0.0725207,0.927421
1598.2,6.98E-02,0.9301128
1599.6,6.71E-02,0.9328008
1601,0.0645147,0.9354268
1602.4,6.20E-02,0.9379321
1603.8,5.97E-02,0.940259
1605.2,5.76E-02,0.9423522
1606.6,5.58E-02,0.9441607
1608,5.43E-02,0.945639
1609.4,5.32E-02,0.9467487
1610.8,5.25E-02,0.947461
1612.2,5.22E-02,0.9477571
1613.6,5.23E-02,0.9476299
1615,5.29E-02,0.9470838
1616.4,5.38E-02,0.9461353
1617.8,5.51E-02,0.9448119
1619.2,5.68E-02,0.9431517
1620.6,5.87E-02,0.9411991
1622,6.09E-02,0.9390067
1623.4,6.33E-02,0.9366357
1624.8,6.58E-02,0.9341478
1626.2,6.83E-02,0.9316061
1627.6,7.09E-02,0.9290716
1629,7.33E-02,0.9266037
1630.4,7.57E-02,0.9242573
1631.8,0.0778633,0.9220823
1633.2,7.98E-02,0.9201226
1634.6,8.15E-02,0.9184155
1636,8.30E-02,0.9169917
1637.4,8.41E-02,0.9158751
1638.8,8.49E-02,0.9150828
1640.2,8.53E-02,0.9146256
1641.6,8.54E-02,0.9145078
1643,8.52E-02,0.9147264
1644.4,8.47E-02,0.9152743
1645.8,0.0838076,0.9161397
1647.2,8.26E-02,0.9173059
1648.6,8.12E-02,0.9187524
1650,7.95E-02,0.9204543
1651.4,7.76E-02,0.9223835
1652.8,7.54E-02,0.9245088
1654.2,0.0731511,0.926796
1655.6,7.07E-02,0.9292094
1657,6.82E-02,0.9317107
1658.4,6.57E-02,0.9342601
1659.8,6.31E-02,0.9368175
1661.2,6.06E-02,0.9393465
1662.6,5.81E-02,0.9418053
1664,5.58E-02,0.9441513
1665.4,5.36E-02,0.9463462
1666.8,5.16E-02,0.9483543
1668.2,4.98E-02,0.9501426
1669.6,4.83E-02,0.9516824
1671,4.70E-02,0.9529489
1672.4,0.0460234,0.9539229
1673.8,4.54E-02,0.9545901
1675.2,4.50E-02,0.9549428
1676.6,0.0449674,0.9549791
1678,4.52E-02,0.9547032
1679.4,4.58E-02,0.9541256
1680.8,0.0466826,0.9532643
1682.2,4.78E-02,0.9521315
1683.6,4.92E-02,0.9507595
1685,0.0507674,0.9491801
1686.4,5.25E-02,0.9474261
1687.8,0.0544149,0.945533
1689.2,5.64E-02,0.9435378
1690.6,5.85E-02,0.9414772
1692,6.06E-02,0.9393888
1693.4,6.26E-02,0.9373086
1694.8,6.47E-02,0.9352714
1696.2,6.66E-02,0.9333101
1697.6,6.85E-02,0.9314542
1699,7.02E-02,0.9297315
1700.4,0.0717852,0.928165
1701.8,7.32E-02,0.9267749
1703.2,7.44E-02,0.9255816
1704.6,7.54E-02,0.9245987
1706,7.61E-02,0.9238371
1707.4,7.66E-02,0.9233038
1708.8,7.69E-02,0.9230029
1710.2,7.70E-02,0.9229355
1711.6,0.0768529,0.9230984
1713,7.65E-02,0.9234862
1714.4,7.59E-02,0.9240907
1715.8,7.51E-02,0.9249012
1717.2,7.40E-02,0.9259042
1718.6,7.29E-02,0.9270844
1720,7.15E-02,0.9284242
1721.4,7.01E-02,0.9298985
1722.8,6.85E-02,0.9314911
1724.2,6.68E-02,0.9331795
1725.6,0.0650107,0.9349406
1727,6.32E-02,0.9367496
1728.4,6.14E-02,0.9385818
1729.8,5.95E-02,0.9404117
1731.2,5.77E-02,0.9422139
1732.6,5.60E-02,0.9439637
1734,5.43E-02,0.9456369
1735.4,5.27E-02,0.9472101
1736.8,5.13E-02,0.9486618
1738.2,5.00E-02,0.9499718
1739.6,0.0488282,0.9511226
1741,4.79E-02,0.9520985
1742.4,4.71E-02,0.9528869
1743.8,4.65E-02,0.953478
1745.2,4.61E-02,0.9538649
1746.6,4.59E-02,0.9540441
1748,4.59E-02,0.9540153
1749.4,0.0461698,0.9537812
1750.8,4.66E-02,0.9533479
1752.2,4.72E-02,0.9527243
1753.6,4.80E-02,0.9519221
1755,4.90E-02,0.9509555
1756.4,5.01E-02,0.9498406
1757.8,5.14E-02,0.9485959
1759.2,5.27E-02,0.9472411
1760.6,5.42E-02,0.9457955
1762,5.57E-02,0.9442803
1763.4,5.72E-02,0.9427189
1764.8,5.88E-02,0.9411337
1766.2,6.04E-02,0.9395466
1767.6,6.20E-02,0.9379787
1769,6.35E-02,0.9364505
1770.4,6.50E-02,0.9349815
1771.8,6.64E-02,0.9335896
1773.2,6.77E-02,0.9322918
1774.6,6.89E-02,0.9311026
1776,6.99E-02,0.9300359
1777.4,7.09E-02,0.929103
1778.8,7.16E-02,0.9283139
1780.2,7.23E-02,0.9276766
1781.6,0.0727575,0.9271965
1783,0.0730764,0.9268777
1784.4,7.32E-02,0.9267225
1785.8,7.32E-02,0.9267319
1787.2,7.30E-02,0.9269044
1788.6,7.27E-02,0.9272377
1790,7.22E-02,0.9277273
1791.4,7.16E-02,0.9283672
1792.8,7.08E-02,0.9291501
1794.2,6.99E-02,0.9300671
1795.6,6.88E-02,0.9311081
1797,6.77E-02,0.9322619
1798.4,6.64E-02,0.9335157
1799.8,6.51E-02,0.9348563
1801.2,6.37E-02,0.9362689
1802.6,6.22E-02,0.9377387
1804,6.07E-02,0.9392498
1805.4,5.92E-02,0.940786
1806.8,5.76E-02,0.9423307
1808.2,5.61E-02,0.9438672
1809.6,5.46E-02,0.9453792
1811,5.31E-02,0.9468503
1812.4,5.17E-02,0.9482645
1813.8,5.03E-02,0.9496071
1815.2,4.91E-02,0.9508633
1816.6,4.79E-02,0.95202
1818,4.69E-02,0.9530652
1819.4,0.0459661,0.9539878
1820.8,4.52E-02,0.95478
1822.2,4.45E-02,0.9554332
1823.6,4.40E-02,0.9559404
1825,4.37E-02,0.9562973
1826.4,4.35E-02,0.9565019
1827.8,4.34E-02,0.9565537
1829.2,0.0434999,0.9564542
1830.6,0.0437474,0.9562068
1832,4.41E-02,0.9558164
1833.4,4.47E-02,0.9552898
1834.8,4.53E-02,0.9546351
1836.2,4.61E-02,0.9538617
1837.6,4.70E-02,0.9529803
1839,4.80E-02,0.9520026
1840.4,4.90E-02,0.9509423
1841.8,5.01E-02,0.9498146
1843.2,5.13E-02,0.9486303
1844.6,5.26E-02,0.947403
1846,5.38E-02,0.9461468
1847.4,5.51E-02,0.9448753
1848.8,5.64E-02,0.9436021
1850.2,5.76E-02,0.9423406
1851.6,5.89E-02,0.9411033
1853,0.0600535,0.9399025
1854.4,6.12E-02,0.9387496
1855.8,0.0623009,0.9376553
1857.2,6.33E-02,0.9366297
1858.6,6.43E-02,0.9356813
1860,6.51E-02,0.9348186
1861.4,6.59E-02,0.9340486
1862.8,6.66E-02,0.9333773
1864.2,0.067147,0.9328097
1865.6,6.76E-02,0.93235
1867,6.80E-02,0.9320012
1868.4,6.82E-02,0.9317654
1869.8,6.83E-02,0.9316437
1871.2,6.83E-02,0.9316359
1872.6,6.82E-02,0.9317413
1874,6.80E-02,0.931958
1875.4,6.77E-02,0.9322833
1876.8,6.72E-02,0.9327133
1878.2,6.67E-02,0.9332439
1879.6,6.61E-02,0.9338694
1881,6.54E-02,0.9345839
1882.4,6.46E-02,0.9353804
1883.8,6.37E-02,0.9362517
1885.2,6.28E-02,0.9371897
1886.6,6.18E-02,0.938186
1888,6.07E-02,0.9392315
1889.4,5.96E-02,0.9403166
1890.8,5.85E-02,0.9414317
1892.2,5.74E-02,0.9425667
1893.6,5.62E-02,0.9437115
1895,5.51E-02,0.944856
1896.4,5.40E-02,0.9459898
1897.8,0.0528537,0.947103
1899.2,5.18E-02,0.9481856
1900.6,5.07E-02,0.9492297
1902,4.97E-02,0.9502263
1903.4,4.88E-02,0.951165
1904.8,4.79E-02,0.9520377
1906.2,4.71E-02,0.952837
1907.6,4.64E-02,0.9535566
1909,4.58E-02,0.9541905
1910.4,4.52E-02,0.954734
1911.8,0.0447735,0.9551831
1913.2,4.44E-02,0.9555351
1914.6,4.42E-02,0.9557878
1916,4.40E-02,0.9559407
1917.4,4.40E-02,0.9559935
1918.8,4.40E-02,0.9559475
1920.2,4.42E-02,0.9558048
1921.6,4.44E-02,0.9555688
1923,4.47E-02,0.9552433
1924.4,4.51E-02,0.954833
1925.8,4.56E-02,0.9543431
1927.2,4.62E-02,0.9537797
1928.6,4.68E-02,0.9531492
1930,0.0474988,0.9524587
1931.4,4.82E-02,0.9517155
1932.8,4.90E-02,0.9509275
1934.2,4.99E-02,0.9501026
1935.6,5.07E-02,0.9492487
1937,5.16E-02,0.9483742
1938.4,5.25E-02,0.9474871
1939.8,5.34E-02,0.9465953
1941.2,5.43E-02,0.945707
1942.6,5.51E-02,0.9448296
1944,5.60E-02,0.9439706
1945.4,5.68E-02,0.9431369
1946.8,5.76E-02,0.9423354
1948.2,5.84E-02,0.9415722
1949.6,5.91E-02,0.9408532
1951,5.98E-02,0.9401838
1952.4,6.04E-02,0.9395688
1953.8,6.09E-02,0.9390123
1955.2,6.14E-02,0.9385186
1956.6,6.19E-02,0.9380905
1958,6.22E-02,0.9377309
1959.4,0.0625174,0.9374419
1960.8,6.27E-02,0.9372255
1962.2,6.29E-02,0.9370829
1963.6,6.29E-02,0.9370145
1965,6.29E-02,0.9370201
1966.4,6.29E-02,0.9370993
1967.8,6.27E-02,0.9372509
1969.2,6.25E-02,0.9374732
1970.6,6.22E-02,0.9377646
1972,0.0618371,0.9381225
1973.4,6.14E-02,0.9385432
1974.8,6.09E-02,0.9390231
1976.2,6.04E-02,0.9395583
1977.6,5.98E-02,0.9401444
1979,5.92E-02,0.9407768
1980.4,5.85E-02,0.9414495
1981.8,5.78E-02,0.9421558
1983.2,5.71E-02,0.9428922
1984.6,5.63E-02,0.9436532
1986,5.55E-02,0.9444329
1987.4,5.47E-02,0.9452252
1988.8,5.39E-02,0.9460241
1990.2,5.31E-02,0.9468233
1991.6,5.23E-02,0.9476169
1993,5.16E-02,0.9483987
1994.4,5.08E-02,0.9491629
1995.8,5.01E-02,0.9499037
1997.2,4.93E-02,0.9506153
1998.6,4.87E-02,0.9512926
2000,4.80E-02,0.9519307
2001.4,4.74E-02,0.9525187
2002.8,4.68E-02,0.9530548
2004.2,4.63E-02,0.953535
2005.6,4.59E-02,0.9539556
2007,4.55E-02,0.9543133
2008.4,4.52E-02,0.9546057
2009.8,0.0449305,0.9548308
2011.2,4.47E-02,0.9549872
2012.6,4.46E-02,0.9550743
2014,4.46E-02,0.9550919
2015.4,4.46E-02,0.9550405
2016.8,4.47E-02,0.9549212
2018.2,4.49E-02,0.9547357
2019.6,4.51E-02,0.9544861
2021,4.54E-02,0.9541751
2022.4,4.57E-02,0.9538059
2023.8,4.61E-02,0.9533821
2025.2,4.65E-02,0.9529079
2026.6,4.70E-02,0.9523873
2028,4.76E-02,0.9518252
2029.4,4.81E-02,0.9512263
2030.8,4.88E-02,0.9505958
2032.2,4.94E-02,0.9499389
2033.6,5.00E-02,0.9492608
2035,5.07E-02,0.948567
2036.4,5.14E-02,0.9478629
2037.8,5.21E-02,0.9471536
2039.2,5.27E-02,0.9464447
2040.6,5.34E-02,0.9457411
2042,5.41E-02,0.9450479
2043.4,5.47E-02,0.9443699
2044.8,5.54E-02,0.9437118
2046.2,5.60E-02,0.9430779
2047.6,5.66E-02,0.9424722
2049,0.0571107,0.9418988
2050.4,5.76E-02,0.9413611
2051.8,0.0580961,0.9408624
2053.2,5.85E-02,0.9404057
2054.6,5.89E-02,0.9399934
2056,5.93E-02,0.9396281
2057.4,5.95E-02,0.9393116
2058.8,5.98E-02,0.9390441
2060.2,0.0599782,0.9388275
2061.6,6.01E-02,0.9386636
2063,6.02E-02,0.9385529
2064.4,6.02E-02,0.9384957
2065.8,6.02E-02,0.9384918
2067.2,6.01E-02,0.9385408
2068.6,6.00E-02,0.9386418
2070,0.0598324,0.9387938
2071.4,5.96E-02,0.9389954
2072.8,5.93E-02,0.9392448
2074.2,5.90E-02,0.93954
2075.6,5.86E-02,0.9398788
2077,5.82E-02,0.9402584
2078.4,0.0577937,0.9406762
2079.8,5.73E-02,0.9411291
2081.2,5.68E-02,0.9416138
2082.6,5.63E-02,0.9421269
2084,5.57E-02,0.9426646
2085.4,5.51E-02,0.9432232
2086.8,5.45E-02,0.943799
2088.2,5.39E-02,0.9443875
2089.6,5.33E-02,0.944985
2091,5.26E-02,0.945587
2092.4,5.20E-02,0.9461895
2093.8,5.14E-02,0.9467884
2095.2,5.08E-02,0.9473793
2096.6,5.02E-02,0.9479584
2098,4.96E-02,0.9485213
2099.4,4.90E-02,0.9490644
2100.8,4.85E-02,0.949584
2102.2,4.79E-02,0.9500765
2103.6,4.75E-02,0.9505385
2105,0.0469997,0.9509669
2106.4,4.66E-02,0.9513589
2107.8,4.62E-02,0.9517119
2109.2,4.59E-02,0.9520236
2110.6,4.56E-02,0.9522921
2112,4.53E-02,0.9525157
2113.4,4.51E-02,0.9526932
2114.8,4.50E-02,0.9528235
2116.2,4.49E-02,0.952906
2117.6,4.48E-02,0.9529404
2119,4.48E-02,0.9529269
2120.4,4.48E-02,0.952866
2121.8,4.49E-02,0.9527581
2123.2,4.50E-02,0.9526047
2124.6,4.52E-02,0.9524068
2126,4.54E-02,0.9521663
2127.4,4.57E-02,0.9518851
2128.8,4.60E-02,0.9515653
2130.2,4.63E-02,0.9512094
2131.6,4.67E-02,0.95082
2133,0.0470781,0.9503999
2134.4,4.75E-02,0.949952
2135.8,0.0479538,0.9494793
2137.2,4.84E-02,0.9489853
2138.6,4.89E-02,0.9484729
2140,4.94E-02,0.9479455
2141.4,4.99E-02,0.9474066
2142.8,5.05E-02,0.9468593
2144.2,5.10E-02,0.9463071
2145.6,5.15E-02,0.9457531
2147,0.0520582,0.9452007
2148.4,5.26E-02,0.944653
2149.8,5.31E-02,0.9441128
2151.2,5.36E-02,0.9435835
2152.6,5.41E-02,0.9430674
2154,5.46E-02,0.9425687
2155.4,5.50E-02,0.942089
2156.8,5.55E-02,0.9416301
2158.2,0.0558935,0.9411945
2159.6,5.63E-02,0.940784
2161,5.66E-02,0.9404007
2162.4,0.0569773,0.9400462
2163.8,5.73E-02,0.9397218
2165.2,5.76E-02,0.9394289
2166.6,0.0577895,0.9391687
2168,5.80E-02,0.9389421
2169.4,0.0581644,0.9387498
2170.8,0.0582997,0.9385924
2172.2,5.84E-02,0.9384701
2173.6,5.85E-02,0.9383833
2175,5.85E-02,0.9383318
2176.4,5.85E-02,0.9383156
2177.8,5.84E-02,0.9383342
2179.2,5.84E-02,0.9383871
2180.6,5.83E-02,0.9384736
2182,5.81E-02,0.9385929
2183.4,0.0579428,0.9387439
2184.8,0.0577377,0.9389255
2186.2,5.75E-02,0.9391364
2187.6,5.72E-02,0.9393751
2189,5.70E-02,0.93964
2190.4,5.66E-02,0.9399295
2191.8,0.0563023,0.9402418
2193.2,5.59E-02,0.9405749
2194.6,5.56E-02,0.9409268
2196,5.52E-02,0.9412956
2197.4,0.054768,0.941679
2198.8,5.43E-02,0.9420749
2200.2,5.39E-02,0.9424809
2201.6,5.35E-02,0.9428948
2203,0.0530347,0.9433143
2204.4,5.26E-02,0.943737
2205.8,0.0521391,0.9441608
2207.2,5.17E-02,0.9445832
2208.6,5.12E-02,0.945002
2210,5.08E-02,0.9454148
2211.4,5.04E-02,0.9458197
2212.8,0.0499632,0.9462145
2214.2,4.96E-02,0.9465971
2215.6,4.92E-02,0.9469657
2217,0.0487868,0.9473184
2218.4,4.84E-02,0.9476535
2219.8,4.81E-02,0.9479696
2221.2,4.78E-02,0.948265
2222.6,4.75E-02,0.9485386
2224,4.72E-02,0.9487891
2225.4,4.69E-02,0.9490157
2226.8,4.67E-02,0.9492175
2228.2,4.65E-02,0.9493938
2229.6,0.0463509,0.9495442
2231,4.62E-02,0.9496683
2232.4,4.61E-02,0.9497661
2233.8,4.60E-02,0.9498375
2235.2,4.59E-02,0.9498827
2236.6,4.59E-02,0.9499021
2238,4.59E-02,0.9498962
2239.4,4.59E-02,0.9498656
2240.8,4.59E-02,0.9498112
2242.2,4.60E-02,0.9497337
2243.6,4.60E-02,0.9496344
2245,4.61E-02,0.9495144
2246.4,4.63E-02,0.9493749
2247.8,4.64E-02,0.9492172
2249.2,4.66E-02,0.9490429
2250.6,0.0467243,0.9488533
2252,4.69E-02,0.9486502
2253.4,4.71E-02,0.9484351
2254.8,4.73E-02,0.9482095
2256.2,4.75E-02,0.9479753
2257.6,4.77E-02,0.947734
2259,4.80E-02,0.9474873
2260.4,4.82E-02,0.9472369
2261.8,4.84E-02,0.9469844
2263.2,4.87E-02,0.9467313
2264.6,4.89E-02,0.9464793
2266,4.91E-02,0.9462299
2267.4,0.0493604,0.9459845
2268.8,4.96E-02,0.9457445
2270.2,4.98E-02,0.9455112
2271.6,5.00E-02,0.9452858
2273,5.02E-02,0.9450696
2274.4,0.0503851,0.9448636
2275.8,5.06E-02,0.9446688
2277.2,5.07E-02,0.9444861
2278.6,5.09E-02,0.9443163
2280,5.10E-02,0.94416
2281.4,5.11E-02,0.944018
2282.8,5.12E-02,0.9438907
2284.2,5.13E-02,0.9437785
2285.6,5.14E-02,0.9436818
2287,5.15E-02,0.9436008
2288.4,5.15E-02,0.9435355
2289.8,0.0515446,0.943486
2291.2,5.16E-02,0.9434524
2292.6,5.16E-02,0.9434342
2294,5.15E-02,0.9434314
2295.4,5.15E-02,0.9434436
2296.8,5.15E-02,0.9434704
2298.2,5.14E-02,0.9435112
2299.6,5.13E-02,0.9435655
2301,5.12E-02,0.9436328
2302.4,5.11E-02,0.9437121
2303.8,5.10E-02,0.9438027
2305.2,5.09E-02,0.9439039
2306.6,5.08E-02,0.9440146
2308,5.06E-02,0.944134
2309.4,5.05E-02,0.944261
2310.8,5.03E-02,0.9443946
2312.2,5.02E-02,0.9445337
2313.6,0.0499903,0.9446772
2315,4.98E-02,0.944824
2316.4,4.97E-02,0.944973
2317.8,4.95E-02,0.945123
2319.2,4.93E-02,0.9452727
2320.6,4.91E-02,0.9454212
2322,4.90E-02,0.9455671
2323.4,4.88E-02,0.9457095
2324.8,4.86E-02,0.9458471
2326.2,0.0484897,0.945979
2327.6,0.0483427,0.946104
2329,4.82E-02,0.9462212
2330.4,4.81E-02,0.9463296
2331.8,4.80E-02,0.9464283
2333.2,4.78E-02,0.9465164
2334.6,4.77E-02,0.9465932
2336,4.77E-02,0.946658
2337.4,4.76E-02,0.9467102
2338.8,0.0475254,0.9467492
2340.2,4.75E-02,0.9467745
2341.6,4.74E-02,0.9467859
2343,4.74E-02,0.946783
2344.4,4.74E-02,0.9467657
2345.8,4.74E-02,0.9467338
2347.2,4.75E-02,0.9466874
2348.6,4.75E-02,0.9466265
2350,4.76E-02,0.9465516
2351.4,4.76E-02,0.9464627
2352.8,4.77E-02,0.9463602
2354.2,4.78E-02,0.9462448
2355.6,4.79E-02,0.946117
2357,4.80E-02,0.9459774
2358.4,4.82E-02,0.9458268
2359.8,4.83E-02,0.945666
2361.2,4.85E-02,0.9454958
2362.6,4.86E-02,0.9453173
2364,4.88E-02,0.9451315
2365.4,4.90E-02,0.9449395
2366.8,4.91E-02,0.9447422
2368.2,4.93E-02,0.9445409
2369.6,4.95E-02,0.9443368
2371,4.97E-02,0.944131
2372.4,4.99E-02,0.9439248
2373.8,0.0500805,0.9437194
2375.2,5.03E-02,0.943516
2376.6,5.04E-02,0.9433157
2378,5.06E-02,0.9431198
2379.4,5.08E-02,0.9429295
2380.8,5.10E-02,0.9427458
2382.2,5.11E-02,0.94257
2383.6,5.13E-02,0.9424028
2385,5.14E-02,0.9422456
2386.4,5.15E-02,0.9420992
2387.8,5.17E-02,0.9419643
2389.2,5.18E-02,0.9418418
2390.6,0.0518597,0.9417326
2392,0.0519375,0.9416372
2393.4,5.20E-02,0.9415562
2394.8,5.20E-02,0.9414902
2396.2,5.21E-02,0.9414395
2397.6,0.0520987,0.9414045
2399,5.21E-02,0.9413855
2400.4,5.21E-02,0.9413825
2401.8,5.21E-02,0.9413958
2403.2,0.0520046,0.9414251
2404.6,5.19E-02,0.9414704
2406,5.19E-02,0.9415317
2407.4,5.18E-02,0.9416084
2408.8,5.17E-02,0.9417002
2410.2,5.15E-02,0.9418068
2411.6,5.14E-02,0.9419276
2413,5.12E-02,0.9420617
2414.4,0.0510662,0.9422088
2415.8,5.09E-02,0.9423679
2417.2,5.07E-02,0.9425381
2418.6,5.05E-02,0.9427187
2420,5.03E-02,0.9429085
2421.4,5.01E-02,0.9431066
2422.8,4.98E-02,0.9433119
2424.2,4.96E-02,0.943523
2425.6,4.94E-02,0.9437391
2427,4.91E-02,0.9439586
2428.4,4.89E-02,0.9441805
2429.8,4.86E-02,0.9444034
2431.2,4.84E-02,0.9446259
2432.6,4.82E-02,0.9448466
2434,0.0479172,0.9450643
2435.4,4.77E-02,0.9452775
2436.8,0.0474532,0.9454849
2438.2,4.72E-02,0.9456857
2439.6,0.0470166,0.945878
2441,4.68E-02,0.9460604
2442.4,4.66E-02,0.9462314
2443.8,4.64E-02,0.9463898
2445.2,4.63E-02,0.9465343
2446.6,4.61E-02,0.9466636
2448,4.60E-02,0.9467766
2449.4,4.59E-02,0.9468721
2450.8,0.0457728,0.9469489
2452.2,4.57E-02,0.9470062
2453.6,4.56E-02,0.9470428
2455,0.0456006,0.9470578
2456.4,4.56E-02,0.9470505
2457.8,4.56E-02,0.94702
2459.2,4.56E-02,0.9469658
2460.6,4.57E-02,0.9468871
2462,4.58E-02,0.9467835
2463.4,0.0458811,0.9466547
2464.8,4.60E-02,0.9465003
2466.2,4.62E-02,0.9463201
2467.6,4.64E-02,0.9461138
2469,4.66E-02,0.9458816
2470.4,4.68E-02,0.9456235
2471.8,4.71E-02,0.9453395
2473.2,4.74E-02,0.94503
2474.6,4.77E-02,0.9446952
2476,4.80E-02,0.9443357
2477.4,4.84E-02,0.9439518
2478.8,4.88E-02,0.9435441
2480.2,4.92E-02,0.9431133
2481.6,4.96E-02,0.9426598
2483,5.01E-02,0.9421846
2484.4,5.06E-02,0.9416884
2485.8,5.11E-02,0.9411718
2487.2,5.16E-02,0.9406358
2488.6,5.21E-02,0.9400811
2490,5.27E-02,0.9395086
2491.4,5.33E-02,0.9389191
2492.8,5.39E-02,0.9383131
2494.2,5.45E-02,0.9376917
2495.6,0.0550768,0.9370552
2497,5.57E-02,0.9364045
2498.4,5.64E-02,0.9357401
2499.8,5.70E-02,0.9350621
2500,0.0571185,0.9349641