File: inputs/coatings/quoted_old/materionJHGapDBS.csv
Preliminary design data,,
1901,,
Wavelength (nm),%R,%T
600,0.9338067,6.61E-02
602,0.8438635,0.1559157
604,0.5953457,0.4043571
606,0.6099969,0.3898557
608,0.6815845,0.3182935
610,0.9519873,4.80E-02
612,0.9905555,9.42E-03
614,0.9960195,3.96E-03
616,0.9969389,3.05E-03
618,0.995256,4.73E-03
620,0.9596965,4.03E-02
622,0.9504108,4.94E-02
624,0.9981359,1.85E-03
626,0.9990215,9.68E-04
628,0.9990392,9.51E-04
630,0.9981082,1.88E-03
632,0.9747567,2.52E-02
634,0.9953907,4.60E-03
636,0.999062,9.28E-04
638,0.9994755,5.14E-04
640,0.9995179,4.71E-04
642,0.999338,6.51E-04
644,0.9985602,1.43E-03
646,0.9932749,6.71E-03
648,0.8661085,0.1338224
650,0.9789347,2.10E-02
652,0.9784412,2.15E-02
654,0.7973173,0.2021461
656,0.9804111,1.95E-02
658,0.9955691,4.40E-03
660,0.9865392,1.20E-02
662,0.9980298,1.95E-03
664,0.9978098,2.17E-03
666,0.9967549,3.22E-03
668,0.9937915,6.18E-03
670,0.9848309,1.51E-02
672,0.9527127,4.72E-02
674,0.8489713,0.1507714
676,0.8829259,0.1168948
678,0.9451241,5.48E-02
680,0.9433859,5.63E-02
682,0.9425232,5.73E-02
684,0.9391512,6.08E-02
686,0.8502718,0.1496524
688,0.5479798,0.4518793
690,0.6657777,0.3341272
692,0.6637382,0.3361711
694,0.6195201,0.3803831
696,0.401609,0.5980034
698,0.9107373,8.92E-02
700,0.9635237,3.64E-02
702,0.9770836,2.29E-02
704,0.9803891,1.96E-02
706,0.9782684,2.17E-02
708,0.9695069,3.04E-02
710,0.9469279,5.30E-02
712,0.8929285,0.1069926
714,0.7885545,0.2113318
716,0.6385643,0.3612564
718,0.5659718,0.433737
720,0.7146286,0.2846589
722,0.9121906,0.0876209
724,0.958916,4.10E-02
726,0.9733218,2.66E-02
728,0.9774147,2.25E-02
730,0.9750867,2.48E-02
732,0.962057,0.0378422
734,0.9053754,0.0944608
736,0.6681283,0.3314186
738,0.7844146,0.2146708
740,0.9594399,0.0404374
742,0.9776329,0.0222933
744,0.9813689,1.86E-02
746,0.9780141,2.19E-02
748,0.955704,4.42E-02
750,0.9310828,6.89E-02
752,0.9177418,8.22E-02
754,0.959524,4.04E-02
756,0.9767284,2.32E-02
758,0.9802256,1.97E-02
760,0.9737127,2.62E-02
762,0.8958483,0.1018473
764,0.861166,0.1384019
766,0.9796517,2.03E-02
768,0.993902,6.05E-03
770,0.9971181,2.85E-03
772,0.9982217,1.75E-03
774,0.9986753,1.30E-03
776,0.998852,1.12E-03
778,0.9988626,1.11E-03
780,0.9987175,1.25E-03
782,0.9983456,1.62E-03
784,0.9975083,2.46E-03
786,0.995425,4.53E-03
788,0.9887043,1.12E-02
790,0.9506647,4.92E-02
792,0.5800695,0.4194281
794,0.9237137,7.62E-02
796,0.9676306,3.23E-02
798,0.9730568,2.68E-02
800,0.9816742,0.0182115
802,0.9835042,1.64E-02
804,0.9843562,1.55E-02
806,0.984094,1.57E-02
808,0.981472,1.83E-02
810,0.9736708,2.61E-02
812,0.944858,5.50E-02
814,0.7277744,0.2720315
816,0.6376271,0.3617178
818,0.9812361,1.87E-02
820,0.9927975,7.16E-03
822,0.9959692,4.00E-03
824,0.99715,2.82E-03
826,0.9975619,2.41E-03
828,0.9974783,2.50E-03
830,0.996696,3.28E-03
832,0.9923865,7.54E-03
834,0.9761477,2.38E-02
836,0.8777112,0.1218961
838,0.9936478,6.31E-03
840,0.9981686,1.81E-03
842,0.9991495,8.32E-04
844,0.999498,4.85E-04
846,0.9996541,3.30E-04
848,0.9997329,2.51E-04
850,0.9997743,2.10E-04
852,0.999794,1.90E-04
854,0.9997987,1.84E-04
856,0.9997903,1.92E-04
858,0.9997674,2.14E-04
860,0.9997248,2.54E-04
862,0.9996514,3.25E-04
864,0.9995241,4.48E-04
866,0.999292,6.73E-04
868,0.9988357,1.12E-03
870,0.9978456,2.09E-03
872,0.9954797,4.41E-03
874,0.9900613,9.76E-03
876,0.9839267,1.59E-02
878,0.9849734,1.49E-02
880,0.9879407,1.20E-02
882,0.9892468,0.0106812
884,0.9889205,1.10E-02
886,0.9869413,1.30E-02
888,0.9826208,1.71E-02
890,0.9757706,2.37E-02
892,0.9697329,3.01E-02
894,0.9677715,3.22E-02
896,0.9714752,2.85E-02
898,0.9763237,2.36E-02
900,0.9797136,2.03E-02
902,0.9813737,1.86E-02
904,0.9815305,1.84E-02
906,0.9802511,1.97E-02
908,0.9772912,2.27E-02
910,0.9719101,2.81E-02
912,0.9627982,3.72E-02
914,0.9505785,4.94E-02
916,0.9335977,6.64E-02
918,0.907388,9.26E-02
920,0.8695331,0.130415
922,0.8191283,0.1808118
924,0.7575635,0.2423677
926,0.6892841,0.3106381
928,0.6213919,0.3785225
930,0.5627529,0.4371555
932,0.5213016,0.4786034
934,0.4995006,0.500403
936,0.4921109,0.5077916
938,0.4887672,0.5111326
940,0.4775172,0.5223762
942,0.4454227,0.5544586
944,0.3785283,0.621334
946,0.2723843,0.7274551
948,0.1561184,0.8437049
950,7.85E-02,0.9213462
952,5.04E-02,0.9494697
954,4.91E-02,0.9507261
956,5.45E-02,0.9453235
958,5.77E-02,0.9421233
960,5.71E-02,0.9427463
962,5.43E-02,0.9455996
964,5.13E-02,0.9485227
966,4.96E-02,0.9503093
968,4.89E-02,0.9510047
970,4.86E-02,0.9513147
972,4.80E-02,0.9518409
974,4.72E-02,0.95265
976,4.66E-02,0.9532897
978,4.67E-02,0.9531572
980,0.0478997,0.9519747
982,0.0498295,0.9500462
984,5.18E-02,0.9481021
986,5.30E-02,0.9469023
988,5.30E-02,0.9468586
990,5.20E-02,0.9478555
992,5.06E-02,0.9493017
994,4.95E-02,0.9503818
996,4.94E-02,0.9504345
998,5.06E-02,0.9492961
1000,5.25E-02,0.947399
1002,5.43E-02,0.945556
1004,5.53E-02,0.9445657
1006,5.50E-02,0.944883
1008,5.34E-02,0.9464667
1010,5.11E-02,0.9488159
1012,4.87E-02,0.9511466
1014,4.72E-02,0.9526638
1016,4.70E-02,0.952856
1018,4.82E-02,0.9517184
1020,5.01E-02,0.9497412
1022,5.22E-02,0.9477003
1024,5.36E-02,0.9463342
1026,0.0538088,0.9460809
1028,5.29E-02,0.9469549
1030,5.13E-02,0.9485788
1032,4.96E-02,0.9503304
1034,4.83E-02,0.9515564
1036,4.81E-02,0.9517985
1038,4.89E-02,0.9509591
1040,5.06E-02,0.949341
1042,5.24E-02,0.9475352
1044,5.37E-02,0.9461979
1046,0.0540708,0.9458228
1048,5.33E-02,0.9465746
1050,5.17E-02,0.9482393
1052,4.96E-02,0.9502871
1054,4.79E-02,0.9520314
1056,4.71E-02,0.952842
1058,4.75E-02,0.952352
1060,4.93E-02,0.9505895
1062,5.19E-02,0.9479856
1064,5.47E-02,0.9452235
1066,0.0568481,0.943049
1068,0.0578395,0.942058
1070,5.74E-02,0.9425415
1072,5.55E-02,0.9444145
1074,5.27E-02,0.9472334
1076,4.96E-02,0.9502974
1078,4.71E-02,0.9528185
1080,4.58E-02,0.954129
1082,4.60E-02,0.9538709
1084,4.78E-02,0.9520975
1086,5.06E-02,0.9492524
1088,5.39E-02,0.9460319
1090,0.056704,0.9431963
1092,5.85E-02,0.9413788
1094,5.90E-02,0.9409501
1096,5.79E-02,0.9419531
1098,5.58E-02,0.9441065
1100,5.30E-02,0.9468721
1102,5.03E-02,0.9495702
1104,4.83E-02,0.9515615
1106,0.0475166,0.9523844
1108,4.80E-02,0.9518795
1110,4.97E-02,0.9502234
1112,5.20E-02,0.9478696
1114,5.45E-02,0.945419
1116,5.64E-02,0.9434651
1118,5.74E-02,0.9424571
1120,5.73E-02,0.942607
1122,5.61E-02,0.943853
1124,5.40E-02,0.9458709
1126,5.18E-02,0.9481502
1128,4.98E-02,0.9501124
1130,4.87E-02,0.9512507
1132,4.86E-02,0.9512609
1134,4.98E-02,0.9501176
1136,5.18E-02,0.9480704
1138,5.43E-02,0.9455739
1140,5.67E-02,0.9431736
1142,5.85E-02,0.9413889
1144,5.93E-02,0.9406006
1146,5.89E-02,0.9409962
1148,5.74E-02,0.9425291
1150,5.50E-02,0.944918
1152,5.22E-02,0.9476902
1154,4.96E-02,0.9502683
1156,4.78E-02,0.9520949
1158,4.71E-02,0.9527662
1160,4.78E-02,0.9521345
1162,4.96E-02,0.9503428
1164,5.21E-02,0.9477792
1166,5.49E-02,0.9449759
1168,5.74E-02,0.9424884
1170,5.91E-02,0.9407884
1172,5.97E-02,0.9401874
1174,5.91E-02,0.9407923
1176,5.74E-02,0.9424892
1178,5.50E-02,0.9449553
1180,0.0522051,0.9477033
1182,4.97E-02,0.9501641
1184,4.81E-02,0.9518039
1186,4.77E-02,0.9522463
1188,4.85E-02,0.9513679
1190,5.06E-02,0.9493281
1192,5.34E-02,0.9465249
1194,5.64E-02,0.9434941
1196,5.91E-02,0.9407907
1198,6.10E-02,0.9388862
1200,6.18E-02,0.9380975
1202,6.14E-02,0.9385445
1204,5.98E-02,0.9401322
1206,5.74E-02,0.9425545
1208,5.46E-02,0.9453215
1210,5.21E-02,0.9478253
1212,5.05E-02,0.9494503
1214,5.02E-02,0.9497135
1216,5.15E-02,0.9483953
1218,5.43E-02,0.9456092
1220,5.81E-02,0.9417803
1222,6.24E-02,0.9375388
1224,6.63E-02,0.9335698
1226,6.94E-02,0.9304802
1228,0.0712061,0.928707
1230,7.14E-02,0.9284741
1232,0.0701294,0.9297835
1234,6.75E-02,0.9324214
1236,6.39E-02,0.9359709
1238,6.01E-02,0.9398391
1240,5.66E-02,0.9433163
1242,5.42E-02,0.9456885
1244,0.0535126,0.9463977
1246,5.47E-02,0.9452042
1248,5.76E-02,0.9422875
1250,6.17E-02,0.9382262
1252,6.61E-02,0.9338568
1254,6.98E-02,0.9300661
1256,7.23E-02,0.9275931
1258,7.30E-02,0.9268926
1260,7.18E-02,0.9280757
1262,6.90E-02,0.9309078
1264,6.51E-02,0.9348497
1266,6.08E-02,0.9391173
1268,5.71E-02,0.9427717
1270,5.51E-02,0.9448554
1272,5.53E-02,0.9445885
1274,5.83E-02,0.9416016
1276,6.38E-02,0.9361262
1278,7.09E-02,0.9290424
1280,7.82E-02,0.9217289
1282,8.41E-02,0.9157641
1284,8.73E-02,0.9125655
1286,8.68E-02,0.9131023
1288,8.22E-02,0.9176719
1290,7.42E-02,0.9257506
1292,6.40E-02,0.9359163
1294,5.40E-02,0.9459053
1296,4.70E-02,0.9529376
1298,4.55E-02,0.9544334
1300,5.09E-02,0.9490293
1302,6.24E-02,0.9374571
1304,7.72E-02,0.9226891
1306,9.08E-02,0.9091215
1308,9.90E-02,0.9009073
1310,0.1007264,0.8991585
1312,0.1031293,0.8967433
1314,0.1273445,0.8725145
1316,0.1958643,0.8039892
1318,0.2920066,0.7078544
1320,0.3716539,0.6282201
1322,0.422684,0.5772009
1324,0.465586,0.5343058
1326,0.5250172,0.4748804
1328,0.6087783,0.3911269
1330,0.7026178,0.2972972
1332,0.7865897,0.213336
1334,0.8509991,0.1489362
1336,0.8963873,0.1035561
1338,0.9272313,7.27E-02
1340,0.9480276,0.0519274
1342,0.9621451,3.78E-02
1344,0.9718707,2.81E-02
1346,0.9786865,2.13E-02
1348,0.9835495,1.64E-02
1350,0.9870804,0.0128888
1352,0.9896873,1.03E-02
1354,0.9916424,8.33E-03
1356,0.9931298,6.84E-03
1358,0.9942769,5.70E-03
1360,0.9951723,4.80E-03
1362,0.9958791,4.10E-03
1364,0.9964428,3.53E-03
1366,0.9968966,3.08E-03
1368,0.9972649,2.71E-03
1370,0.997566,2.41E-03
1372,0.9978138,2.16E-03
1374,0.9980189,1.96E-03
1376,0.9981892,1.79E-03
1378,0.9983311,1.65E-03
1380,0.9984494,1.53E-03
1382,0.9985479,1.43E-03
1384,0.9986298,1.35E-03
1386,0.9986976,1.28E-03
1388,0.9987531,1.23E-03
1390,0.9987979,1.18E-03
1392,0.9988331,1.15E-03
1394,0.9988596,1.12E-03
1396,0.9988781,1.10E-03
1398,0.998889,1.09E-03
1400,0.9988927,1.09E-03
1402,0.9988894,1.09E-03
1404,0.998879,1.10E-03
1406,0.9988613,1.12E-03
1408,0.9988359,1.15E-03
1410,0.9988025,1.18E-03
1412,0.9987603,1.22E-03
1414,0.9987084,1.27E-03
1416,0.9986458,1.33E-03
1418,0.9985711,1.41E-03
1420,0.9984825,1.50E-03
1422,0.9983779,1.60E-03
1424,0.9982547,1.73E-03
1426,0.9981094,1.87E-03
1428,0.9979381,2.04E-03
1430,0.9977357,2.24E-03
1432,0.9974958,2.48E-03
1434,0.9972104,2.77E-03
1436,0.9968695,3.11E-03
1438,0.9964601,3.52E-03
1440,0.9959659,4.01E-03
1442,0.9953667,4.61E-03
1444,0.9946343,5.34E-03
1446,0.9937325,6.24E-03
1448,0.9926136,7.36E-03
1450,0.991214,8.76E-03
1452,0.9894479,1.05E-02
1454,0.9871988,1.28E-02
1456,0.9843072,1.57E-02
1458,0.9805524,1.94E-02
1460,0.975627,2.43E-02
1462,0.9690867,3.09E-02
1464,0.9603333,3.96E-02
1466,0.948521,5.14E-02
1468,0.9324899,6.75E-02
1470,0.9107059,8.92E-02
1472,0.8812894,0.1186533
1474,0.8422867,0.1576499
1476,0.7924302,0.2074999
1478,0.7325524,0.2673713
1480,0.6671803,0.3327382
1482,0.6048096,0.3951059
1484,0.5544469,0.4454683
1486,0.5215133,0.4784037
1488,0.5055206,0.4943995
1490,0.5018681,0.4980555
1492,0.5050383,0.4948883
1494,0.5106121,0.4893164
1496,0.5157597,0.4841698
1498,0.5189541,0.4809754
1500,0.5195184,0.4804102
1502,0.5172474,0.4826791
1504,0.5121248,0.4877988
1506,0.5041212,0.4957983
1508,0.4929715,0.5069428
1510,0.4779209,0.5219868
1512,0.4574249,0.5424744
1514,0.4289029,0.570986
1516,0.3889299,0.6109467
1518,0.3347452,0.665118
1520,0.2678605,0.731991
1522,0.1976491,0.8021957
1524,0.1384936,0.8613521
1526,9.98E-02,0.9000616
1528,0.0805397,0.9193237
1530,7.38E-02,0.9260895
1532,7.28E-02,0.9271039
1534,0.0733861,0.9265015
1536,7.39E-02,0.926029
1538,7.39E-02,0.9259494
1540,7.41E-02,0.9258214
1542,7.49E-02,0.925041
1544,7.67E-02,0.9231811
1546,7.98E-02,0.9201372
1548,8.38E-02,0.9161332
1550,8.83E-02,0.9116213
1552,9.28E-02,0.9071434
1554,9.67E-02,0.9032111
1556,9.97E-02,0.9002299
1558,0.1014422,0.8984714
1560,0.1018377,0.8980768
1562,0.1008363,0.8990788
1564,9.85E-02,0.9014199
1566,9.49E-02,0.9049706
1568,9.04E-02,0.9095395
1570,8.50E-02,0.9148764
1572,7.92E-02,0.9206762
1574,7.33E-02,0.9265862
1576,6.77E-02,0.9322233
1578,6.27E-02,0.937203
1580,5.87E-02,0.9411785
1582,5.60E-02,0.9438815
1584,5.47E-02,0.9451663
1586,5.49E-02,0.9450215
1588,5.63E-02,0.9435734
1590,5.89E-02,0.9410651
1592,6.21E-02,0.9378195
1594,6.57E-02,0.934195
1596,6.94E-02,0.9305447
1598,7.27E-02,0.9271836
1600,7.56E-02,0.9243674
1602,7.76E-02,0.922282
1604,7.89E-02,0.9210429
1606,7.92E-02,0.9206983
1608,0.0786868,0.9212382
1610,0.0773237,0.9226016
1612,7.52E-02,0.9246864
1614,7.26E-02,0.9273575
1616,6.95E-02,0.930454
1618,6.61E-02,0.9337974
1620,0.0627259,0.9371998
1622,0.0594468,0.9404789
1624,5.65E-02,0.943445
1626,5.40E-02,0.9459368
1628,5.21E-02,0.9478226
1630,5.09E-02,0.9490108
1632,5.05E-02,0.9494564
1634,5.08E-02,0.9491641
1636,5.17E-02,0.9481885
1638,0.053299,0.9466279
1640,5.53E-02,0.944616
1642,5.76E-02,0.9423147
1644,6.00E-02,0.9398878
1646,6.24E-02,0.9375018
1648,6.46E-02,0.9353116
1650,6.65E-02,0.9334524
1652,6.79E-02,0.9320338
1654,6.88E-02,0.9311362
1656,6.91E-02,0.9308088
1658,6.89E-02,0.9310701
1660,6.80E-02,0.931909
1662,6.66E-02,0.9332924
1664,6.48E-02,0.9351584
1666,6.25E-02,0.9374195
1668,6.00E-02,0.9399741
1670,5.72E-02,0.9427076
1672,5.44E-02,0.9454983
1674,5.17E-02,0.948222
1676,0.0491713,0.9507586
1678,4.69E-02,0.9529977
1680,4.51E-02,0.9548445
1682,4.37E-02,0.9562155
1684,4.29E-02,0.9570658
1686,4.25E-02,0.9573805
1688,4.28E-02,0.9571651
1690,4.35E-02,0.956452
1692,4.46E-02,0.9552967
1694,4.62E-02,0.9537752
1696,4.80E-02,0.9519783
1698,4.99E-02,0.9500054
1700,5.20E-02,0.9479603
1702,5.40E-02,0.9459416
1704,5.59E-02,0.9440485
1706,0.0575669,0.9423662
1708,5.90E-02,0.940967
1710,6.00E-02,0.9399083
1712,6.07E-02,0.9392299
1714,6.10E-02,0.9389539
1716,6.08E-02,0.9390852
1718,6.03E-02,0.9396117
1720,5.94E-02,0.9405051
1722,5.82E-02,0.9417194
1724,5.67E-02,0.9432006
1726,5.51E-02,0.9448822
1728,5.32E-02,0.9466892
1730,5.14E-02,0.9485415
1732,0.0495781,0.9503562
1734,4.79E-02,0.9520517
1736,4.64E-02,0.953551
1738,4.51E-02,0.9547851
1740,4.42E-02,0.955696
1742,4.37E-02,0.9562396
1744,4.35E-02,0.9563873
1746,4.38E-02,0.9561279
1748,4.45E-02,0.9554667
1750,4.55E-02,0.9544262
1752,4.69E-02,0.9530434
1754,4.86E-02,0.9513687
1756,5.05E-02,0.9494624
1758,5.25E-02,0.9473921
1760,5.47E-02,0.9452296
1762,5.69E-02,0.9430463
1764,5.90E-02,0.9409157
1766,6.10E-02,0.9389056
1768,6.29E-02,0.9370775
1770,6.45E-02,0.9354853
1772,6.58E-02,0.9341738
1774,6.68E-02,0.9331785
1776,6.74E-02,0.9325238
1778,6.77E-02,0.9322246
1780,6.77E-02,0.9322845
1782,6.72E-02,0.9326927
1784,6.65E-02,0.9334363
1786,0.0654487,0.9344899
1788,0.0641186,0.93582
1790,6.26E-02,0.9373854
1792,6.08E-02,0.9391386
1794,5.89E-02,0.9410272
1796,5.69E-02,0.9429954
1798,5.50E-02,0.9449856
1800,5.30E-02,0.9469405
1802,5.11E-02,0.9488047
1804,4.94E-02,0.9505262
1806,4.79E-02,0.9520591
1808,4.66E-02,0.9533643
1810,4.55E-02,0.9544114
1812,0.0447593,0.9551791
1814,4.43E-02,0.9556568
1816,4.41E-02,0.9558434
1818,4.42E-02,0.9557472
1820,4.46E-02,0.9553859
1822,4.52E-02,0.9547847
1824,4.60E-02,0.9539765
1826,4.69E-02,0.9529996
1828,4.80E-02,0.9518962
1830,4.92E-02,0.9507104
1832,5.05E-02,0.9494869
1834,5.17E-02,0.9482695
1836,5.28E-02,0.9470999
1838,5.39E-02,0.9460164
1840,0.0548878,0.9450526
1842,5.57E-02,0.9442387
1844,5.63E-02,0.9435959
1846,5.68E-02,0.943141
1848,5.71E-02,0.9428851
1850,5.71E-02,0.9428325
1852,5.70E-02,0.9429811
1854,0.0566179,0.943323
1856,5.61E-02,0.9438447
1858,5.54E-02,0.9445269
1860,5.46E-02,0.945346
1862,0.0536667,0.9462742
1864,5.27E-02,0.9472808
1866,5.16E-02,0.9483324
1868,5.05E-02,0.949395
1870,0.0495069,0.950434
1872,4.85E-02,0.9514158
1874,4.76E-02,0.9523088
1876,4.69E-02,0.9530846
1878,4.62E-02,0.9537186
1880,0.0457504,0.9541905
1882,4.55E-02,0.9544856
1884,4.53E-02,0.9545949
1886,4.54E-02,0.9545151
1888,4.57E-02,0.9542484
1890,4.61E-02,0.9538027
1892,4.68E-02,0.9531907
1894,0.0475119,0.9524297
1896,4.84E-02,0.9515406
1898,4.94E-02,0.9505476
1900,5.05E-02,0.9494767
1902,5.16E-02,0.9483531
1904,5.27E-02,0.9472072
1906,5.39E-02,0.9460671
1908,5.50E-02,0.9449599
1910,5.60E-02,0.9439111
1912,0.0569987,0.9429444
1914,5.79E-02,0.9420809
1916,0.0586046,0.9413388
1918,5.92E-02,0.9407334
1920,5.97E-02,0.9402764
1922,6.00E-02,0.9399756
1924,0.0601084,0.9398355
1926,6.01E-02,0.9398574
1928,5.99E-02,0.9400392
1930,5.96E-02,0.9403749
1932,5.91E-02,0.9408556
1934,0.058475,0.9414692
1936,0.0577434,0.9422009
1938,5.69E-02,0.9430331
1940,5.60E-02,0.9439464
1942,5.50E-02,0.9449198
1944,5.40E-02,0.9459308
1946,5.30E-02,0.9469568
1948,5.20E-02,0.9479744
1950,5.10E-02,0.9489616
1952,5.00E-02,0.9498966
1954,4.92E-02,0.95076
1956,0.0484103,0.951534
1958,4.77E-02,0.9522037
1960,4.72E-02,0.9527567
1962,4.68E-02,0.9531852
1964,4.65E-02,0.9534819
1966,4.63E-02,0.9536445
1968,4.63E-02,0.9536743
1970,4.64E-02,0.9535756
1972,0.0465861,0.9533587
1974,4.69E-02,0.9530306
1976,4.73E-02,0.9526035
1978,4.79E-02,0.9520916
1980,4.84E-02,0.9515107
1982,4.91E-02,0.9508785
1984,4.97E-02,0.9502113
1986,5.04E-02,0.9495263
1988,0.0511048,0.9488408
1990,5.18E-02,0.9481712
1992,5.24E-02,0.947533
1994,5.30E-02,0.9469408
1996,5.35E-02,0.9464074
1998,5.40E-02,0.945944
2000,5.44E-02,0.9455602
2002,5.47E-02,0.9452127
2004,5.49E-02,0.9449633
2006,5.50E-02,0.9448155
2008,5.50E-02,0.9447699
2010,5.49E-02,0.944825
2012,0.0546491,0.9449766
2014,5.44E-02,0.9452184
2016,5.40E-02,0.9455422
2018,5.35E-02,0.9459374
2020,5.30E-02,0.9463921
2022,5.25E-02,0.9468929
2024,5.19E-02,0.9474252
2026,5.13E-02,0.9479737
2028,5.07E-02,0.948523
2030,5.01E-02,0.9490575
2032,4.95E-02,0.9495622
2034,4.90E-02,0.9500228
2036,4.86E-02,0.9504264
2038,4.82E-02,0.9507617
2040,4.79E-02,0.951019
2042,4.76E-02,0.9511911
2044,4.75E-02,0.9512727
2046,4.75E-02,0.951261
2048,4.75E-02,0.9511555
2050,0.0476644,0.9509582
2052,4.79E-02,0.950673
2054,4.82E-02,0.9503062
2056,4.86E-02,0.9498655
2058,4.91E-02,0.9493604
2060,4.96E-02,0.948799
2062,5.01E-02,0.9481955
2064,5.07E-02,0.947562
2066,0.0513153,0.946911
2068,5.19E-02,0.9462548
2070,5.25E-02,0.9456058
2072,5.31E-02,0.9449757
2074,5.37E-02,0.9443756
2076,5.42E-02,0.9438157
2078,5.46E-02,0.9433053
2080,5.50E-02,0.9428523
2082,5.54E-02,0.9424639
2084,0.0556513,0.9421457
2086,5.58E-02,0.9419019
2088,5.60E-02,0.9417355
2090,5.60E-02,0.9416482
2092,5.60E-02,0.9416401
2094,5.58E-02,0.9417102
2096,5.57E-02,0.9418558
2098,5.54E-02,0.9420732
2100,5.51E-02,0.9423572
2102,5.47E-02,0.9427018
2104,5.42E-02,0.9430994
2106,5.37E-02,0.9435418
2108,5.32E-02,0.9440198
2110,5.26E-02,0.9445235
2112,5.21E-02,0.9450425
2114,0.0514988,0.945566
2116,5.09E-02,0.9460832
2118,5.04E-02,0.9465834
2120,4.99E-02,0.9470562
2122,4.94E-02,0.9474915
2124,4.89E-02,0.9478804
2126,4.86E-02,0.9482148
2128,0.0482325,0.9484876
2130,4.80E-02,0.9486932
2132,0.0477966,0.9488275
2134,4.77E-02,0.9488878
2136,4.77E-02,0.9488729
2138,4.77E-02,0.9487836
2140,4.78E-02,0.9486217
2142,4.80E-02,0.9483908
2144,4.83E-02,0.9480959
2146,4.86E-02,0.9477429
2148,4.89E-02,0.947339
2150,4.93E-02,0.9468922
2152,4.98E-02,0.9464111
2154,5.02E-02,0.9459056
2156,5.07E-02,0.9453848
2158,5.12E-02,0.9448574
2160,5.17E-02,0.9443324
2162,5.21E-02,0.9438189
2164,5.26E-02,0.9433252
2166,5.30E-02,0.9428593
2168,5.34E-02,0.9424284
2170,5.37E-02,0.9420389
2172,5.40E-02,0.9416965
2174,5.43E-02,0.9414058
2176,5.45E-02,0.9411707
2178,5.46E-02,0.940994
2180,5.47E-02,0.9408777
2182,5.47E-02,0.9408227
2184,5.47E-02,0.9408292
2186,5.45E-02,0.9408962
2188,0.0543726,0.9410221
2190,5.41E-02,0.9412043
2192,5.39E-02,0.9414394
2194,5.35E-02,0.9417235
2196,5.32E-02,0.9420517
2198,5.27E-02,0.9424187
2200,0.0523028,0.9428185
2202,5.18E-02,0.9432448
2204,5.13E-02,0.943691
2206,5.08E-02,0.9441499
2208,5.03E-02,0.9446144
2210,4.98E-02,0.9450775
2212,4.93E-02,0.9455319
2214,4.88E-02,0.945971
2216,4.84E-02,0.9463879
2218,4.79E-02,0.9467768
2220,0.0475273,0.947132
2222,4.72E-02,0.9474487
2224,4.68E-02,0.9477227
2226,4.66E-02,0.9479507
2228,4.64E-02,0.9481303
2230,0.0461767,0.9482601
2232,4.61E-02,0.9483394
2234,4.60E-02,0.9483686
2236,4.60E-02,0.9483491
2238,4.60E-02,0.9482828
2240,4.61E-02,0.9481728
2242,4.62E-02,0.9480225
2244,4.63E-02,0.9478363
2246,4.65E-02,0.9476187
2248,4.67E-02,0.9473748
2250,0.0469106,0.9471098
2252,4.72E-02,0.9468292
2254,4.74E-02,0.9465383
2256,0.0476576,0.9462425
2258,4.79E-02,0.9459469
2260,4.82E-02,0.9456562
2262,4.84E-02,0.9453749
2264,4.86E-02,0.945107
2266,4.88E-02,0.9448559
2268,4.90E-02,0.9446246
2270,4.92E-02,0.9444156
2272,4.93E-02,0.9442305
2274,4.95E-02,0.9440708
2276,4.96E-02,0.9439368
2278,4.96E-02,0.9438289
2280,4.97E-02,0.9437465
2282,4.97E-02,0.9436886
2284,4.97E-02,0.9436538
2286,4.96E-02,0.9436402
2288,4.96E-02,0.9436454
2290,4.95E-02,0.9436666
2292,4.94E-02,0.943701
2294,4.94E-02,0.9437452
2296,4.93E-02,0.9437957
2298,4.92E-02,0.9438488
2300,4.91E-02,0.9439007
2302,4.90E-02,0.9439477
2304,0.0489028,0.9439859
2306,4.88E-02,0.9440116
2308,4.88E-02,0.9440213
2310,4.87E-02,0.9440117
2312,4.87E-02,0.9439799
2314,4.88E-02,0.943923
2316,4.88E-02,0.943839
2318,4.89E-02,0.943726
2320,4.90E-02,0.943583
2322,4.91E-02,0.9434094
2324,4.93E-02,0.9432053
2326,0.0494614,0.9429713
2328,4.97E-02,0.942709
2330,4.99E-02,0.9424201
2332,5.02E-02,0.9421074
2334,5.05E-02,0.941774
2336,5.08E-02,0.9414238
2338,5.11E-02,0.941061
2340,5.15E-02,0.9406902
2342,5.18E-02,0.9403164
2344,5.22E-02,0.9399447
2346,5.25E-02,0.9395804
2348,5.28E-02,0.9392289
2350,5.31E-02,0.9388951
2352,0.053371,0.9385841
2354,5.36E-02,0.9383005
2356,5.38E-02,0.9380485
2358,5.40E-02,0.9378318
2360,5.42E-02,0.9376536
2362,5.43E-02,0.9375163
2364,5.43E-02,0.9374216
2366,5.43E-02,0.9373708
2368,5.43E-02,0.937364
2370,5.42E-02,0.9374008
2372,5.41E-02,0.9374799
2374,5.39E-02,0.9375995
2376,5.37E-02,0.9377568
2378,5.35E-02,0.9379485
2380,5.32E-02,0.9381706
2382,5.29E-02,0.9384187
2384,5.26E-02,0.9386879
2386,5.23E-02,0.9389728
2388,5.19E-02,0.9392678
2390,5.16E-02,0.9395671
2392,5.13E-02,0.9398649
2394,5.09E-02,0.9401552
2396,0.0505913,0.9404323
2398,5.03E-02,0.9406906
2400,0.0500026,0.9409249
2402,4.97E-02,0.9411305
2404,4.95E-02,0.9413029
2406,4.93E-02,0.9414386
2408,4.92E-02,0.9415345
2410,4.91E-02,0.9415887
2412,4.90E-02,0.9415997
2414,4.90E-02,0.9415674
2416,0.0490553,0.9414923
2418,4.91E-02,0.9413761
2420,0.0492333,0.9412217
2422,4.94E-02,0.9410329
2424,4.95E-02,0.9408144
2426,4.97E-02,0.9405724
2428,5.00E-02,0.9403136
2430,0.0501794,0.9400457
2432,5.04E-02,0.9397771
2434,5.06E-02,0.9395171
2436,5.08E-02,0.939275
2438,5.10E-02,0.9390614
2440,5.11E-02,0.938886
2442,5.12E-02,0.9387578
2444,5.12E-02,0.9386857
2446,5.11E-02,0.938678
2448,5.10E-02,0.9387416
2450,5.08E-02,0.9388825
2452,5.05E-02,0.9391042
2454,5.02E-02,0.9394085
2456,4.97E-02,0.9397944
2458,4.92E-02,0.940258
2460,4.85E-02,0.9407917
2462,4.79E-02,0.9413847
2464,4.71E-02,0.9420213
2466,4.64E-02,0.9426817
2468,4.56E-02,0.9433407
2470,4.49E-02,0.9439679
2472,4.42E-02,0.9445271
2474,0.0436709,0.944976
2476,0.0432624,0.9452664
2478,4.31E-02,0.9453431
2480,4.31E-02,0.9451452
2482,4.35E-02,0.9446051
2484,4.44E-02,0.9436494
2486,4.57E-02,0.9421993
2488,0.0475806,0.9401711
2490,5.01E-02,0.9374779
2492,5.35E-02,0.9340301
2494,5.76E-02,0.9297376
2496,0.062726,0.924512
2498,6.89E-02,0.9182684
2500,7.61E-02,0.9109281