File: inputs/coatings/quoted_old/materionFEIBlockingFilter.csv
Preliminary design data,,
2161,,
Wavelength (nm),%R,%T
940,0.7413391,0.195699
942,0.7021614,0.2376757
944,0.5908064,0.3409577
946,0.3918368,0.5241835
948,0.1656133,0.7370825
950,4.56E-02,0.8570191
952,2.86E-02,0.8806234
954,3.43E-02,0.8798105
956,3.85E-02,0.8783354
958,0.0478285,0.8713672
960,6.24E-02,0.8593438
962,7.31E-02,0.8505117
964,7.41E-02,0.850459
966,6.64E-02,0.8582826
968,5.47E-02,0.8697507
970,4.31E-02,0.8810413
972,3.43E-02,0.8898208
974,2.97E-02,0.8947359
976,2.96E-02,0.8955271
978,3.24E-02,0.893611
980,3.55E-02,0.8914754
982,3.68E-02,0.8908828
984,3.65E-02,0.8917188
986,3.60E-02,0.8926814
988,3.61E-02,0.8930114
990,3.62E-02,0.8933546
992,3.51E-02,0.8948504
994,0.032521,0.8975807
996,3.01E-02,0.9001563
998,0.0297065,0.9009606
1000,3.14E-02,0.8998086
1002,0.0334506,0.8984857
1004,3.43E-02,0.8982276
1006,3.36E-02,0.8994175
1008,3.23E-02,0.901078
1010,3.22E-02,0.9016587
1012,3.41E-02,0.9003441
1014,3.73E-02,0.8978279
1016,3.99E-02,0.8958849
1018,4.01E-02,0.8961186
1020,3.77E-02,0.8988407
1022,3.39E-02,0.9028388
1024,3.08E-02,0.9061418
1026,3.01E-02,0.9072983
1028,0.0316885,0.9062927
1030,3.42E-02,0.9044302
1032,0.0359169,0.9033425
1034,3.58E-02,0.9039083
1036,3.43E-02,0.905799
1038,3.26E-02,0.9078395
1040,3.19E-02,0.9088775
1042,3.27E-02,0.9085611
1044,3.43E-02,0.9075006
1046,3.55E-02,0.9067566
1048,3.55E-02,0.9070839
1050,3.45E-02,0.9084678
1052,3.30E-02,0.9102136
1054,3.21E-02,0.9114754
1056,3.21E-02,0.9118493
1058,3.28E-02,0.9116182
1060,0.0333385,0.9114958
1062,3.31E-02,0.912075
1064,3.22E-02,0.913381
1066,3.10E-02,0.9148191
1068,3.06E-02,0.9155512
1070,3.15E-02,0.9150671
1072,3.35E-02,0.9135748
1074,3.56E-02,0.9119352
1076,3.68E-02,0.9111797
1078,3.64E-02,0.9119101
1080,3.46E-02,0.9139247
1082,0.0324284,0.9162693
1084,3.12E-02,0.9177014
1086,3.18E-02,0.9173419
1088,3.44E-02,0.9151672
1090,3.80E-02,0.9120522
1092,4.14E-02,0.9093318
1094,4.31E-02,0.9081606
1096,4.28E-02,0.9090038
1098,4.07E-02,0.9114619
1100,3.79E-02,0.9144701
1102,3.58E-02,0.916728
1104,3.52E-02,0.9173997
1106,3.63E-02,0.9163119
1108,3.88E-02,0.9139835
1110,4.16E-02,0.9113337
1112,4.40E-02,0.9092756
1114,4.52E-02,0.9083967
1116,4.52E-02,0.9088353
1118,4.41E-02,0.910349
1120,0.0423808,0.9124966
1122,4.04E-02,0.9148313
1124,3.86E-02,0.9170234
1126,3.70E-02,0.9188771
1128,3.58E-02,0.9202756
1130,3.51E-02,0.9211156
1132,3.50E-02,0.921299
1134,3.58E-02,0.9207859
1136,3.71E-02,0.9196758
1138,3.88E-02,0.9182593
1140,4.04E-02,0.9169828
1142,4.13E-02,0.9163271
1144,4.12E-02,0.916642
1146,3.99E-02,0.9180073
1148,3.78E-02,0.9201817
1150,3.53E-02,0.9226677
1152,3.32E-02,0.9248782
1154,3.18E-02,0.9263451
1156,3.15E-02,0.9268836
1158,3.20E-02,0.9266374
1160,3.29E-02,0.9259828
1162,3.38E-02,0.9253402
1164,3.44E-02,0.9249795
1166,0.0347194,0.9249052
1168,3.49E-02,0.9248682
1170,3.55E-02,0.9244997
1172,3.67E-02,0.923511
1174,3.85E-02,0.9218724
1176,4.08E-02,0.9198849
1178,4.28E-02,0.9181077
1180,4.40E-02,0.9171672
1182,4.38E-02,0.9175214
1184,4.22E-02,0.9192693
1186,3.94E-02,0.9220682
1188,0.036265,0.9251956
1190,0.0337329,0.9277493
1192,3.26E-02,0.9289365
1194,3.34E-02,0.9283549
1196,3.60E-02,0.9261506
1198,3.95E-02,0.9229838
1200,4.31E-02,0.9198158
1202,4.55E-02,0.9178172
1204,4.63E-02,0.917379
1206,4.52E-02,0.918682
1208,4.26E-02,0.9214539
1210,3.91E-02,0.9250512
1212,3.55E-02,0.9286386
1214,0.0328097,0.931421
1216,3.15E-02,0.9328665
1218,0.031626,0.9328456
1220,3.30E-02,0.9316397
1222,3.51E-02,0.9298228
1224,3.71E-02,0.9280661
1226,3.85E-02,0.9269384
1228,3.89E-02,0.9267641
1230,3.83E-02,0.9275657
1232,3.69E-02,0.9290962
1234,3.51E-02,0.9309408
1236,3.35E-02,0.9326557
1238,3.24E-02,0.9339023
1240,3.19E-02,0.9345372
1242,3.20E-02,0.9346293
1244,3.23E-02,0.9344076
1246,3.28E-02,0.9341602
1248,3.30E-02,0.9341264
1250,3.28E-02,0.9344144
1252,3.24E-02,0.9349723
1254,0.0319066,0.935613
1256,3.16E-02,0.9360866
1258,0.0316118,0.9361717
1260,3.22E-02,0.9357584
1262,3.32E-02,0.9348941
1264,3.45E-02,0.9337764
1266,3.58E-02,0.9326971
1268,3.67E-02,0.931958
1270,3.71E-02,0.9317838
1272,0.036756,0.932259
1274,3.59E-02,0.933304
1276,3.46E-02,0.9346965
1278,3.33E-02,0.9361324
1280,3.22E-02,0.9373093
1282,3.16E-02,0.9380095
1284,3.16E-02,0.9381589
1286,3.21E-02,0.9378422
1288,3.29E-02,0.9372723
1290,3.36E-02,0.936721
1292,3.41E-02,0.9364369
1294,3.41E-02,0.9365714
1296,0.0336557,0.9371332
1298,3.29E-02,0.9379827
1300,3.22E-02,0.9388676
1302,3.17E-02,0.9395376
1304,3.17E-02,0.9396775
1306,3.24E-02,0.9391413
1308,3.38E-02,0.9379524
1310,3.57E-02,0.936307
1312,3.77E-02,0.9345304
1314,3.95E-02,0.9330005
1316,0.0406526,0.9320586
1318,4.10E-02,0.9319311
1320,4.04E-02,0.9326791
1322,3.91E-02,0.9341849
1324,3.73E-02,0.9361783
1326,0.0353003,0.9382951
1328,3.36E-02,0.9401597
1330,3.24E-02,0.9414696
1332,3.20E-02,0.9420638
1334,0.0323331,0.9419548
1336,3.32E-02,0.9413174
1338,3.43E-02,0.9404377
1340,3.53E-02,0.9396372
1342,0.0359147,0.9391935
1344,3.60E-02,0.9392759
1346,3.56E-02,0.9399103
1348,0.0346489,0.9409766
1350,3.35E-02,0.9422406
1352,3.25E-02,0.9434117
1354,3.19E-02,0.9442146
1356,0.0318037,0.944457
1358,3.24E-02,0.9440779
1360,3.35E-02,0.9431638
1362,3.49E-02,0.9419279
1364,3.64E-02,0.9406575
1366,3.76E-02,0.9396554
1368,3.83E-02,0.9391649
1370,3.83E-02,0.9393208
1372,3.76E-02,0.9401222
1374,0.0364897,0.941433
1376,3.51E-02,0.9430101
1378,3.37E-02,0.9445553
1380,3.26E-02,0.9457776
1382,3.21E-02,0.9464569
1384,3.22E-02,0.9464911
1386,3.30E-02,0.9459174
1388,3.42E-02,0.9449018
1390,0.0355777,0.9436997
1392,0.0368701,0.9426005
1394,3.78E-02,0.941866
1396,3.82E-02,0.9416783
1398,0.0378916,0.9421054
1400,3.71E-02,0.9430894
1402,3.58E-02,0.944319
1404,3.45E-02,0.9456918
1406,3.32E-02,0.9469491
1408,3.24E-02,0.9478578
1410,3.20E-02,0.9482567
1412,3.22E-02,0.9480885
1414,3.29E-02,0.9474093
1416,3.40E-02,0.9463744
1418,3.52E-02,0.9452055
1420,3.63E-02,0.9441444
1422,3.71E-02,0.9434057
1424,3.74E-02,0.9431376
1426,3.72E-02,0.9433951
1428,3.65E-02,0.9441316
1430,3.54E-02,0.9452093
1432,3.42E-02,0.9464249
1434,3.31E-02,0.9475486
1436,3.23E-02,0.948368
1438,3.20E-02,0.9487277
1440,3.22E-02,0.9485608
1442,3.29E-02,0.9479001
1444,3.40E-02,0.946871
1446,3.52E-02,0.9456669
1448,3.64E-02,0.9445107
1450,3.74E-02,0.9436148
1452,3.79E-02,0.9431427
1454,3.79E-02,0.9431811
1456,3.73E-02,0.9437267
1458,3.64E-02,0.944687
1460,3.52E-02,0.9458976
1462,3.39E-02,0.9471502
1464,3.29E-02,0.9482297
1466,3.22E-02,0.948952
1468,3.19E-02,0.9491974
1470,0.0322458,0.9489315
1472,3.30E-02,0.9482111
1474,3.41E-02,0.9471703
1476,3.53E-02,0.9459971
1478,3.65E-02,0.9448991
1480,3.73E-02,0.9440671
1482,3.78E-02,0.9436432
1484,3.78E-02,0.943699
1486,3.73E-02,0.9442255
1488,3.64E-02,0.9451353
1490,3.52E-02,0.9462789
1492,3.40E-02,0.9474694
1494,3.30E-02,0.948514
1496,3.23E-02,0.9492479
1498,3.20E-02,0.9495608
1500,0.0321862,0.9494163
1502,3.28E-02,0.9488572
1504,0.0336909,0.9479949
1506,3.47E-02,0.946989
1508,3.58E-02,0.9460192
1510,3.66E-02,0.9452549
1512,3.70E-02,0.9448271
1514,3.71E-02,0.9448089
1516,3.67E-02,0.9452045
1518,3.59E-02,0.9459498
1520,3.50E-02,0.9469238
1522,0.0339329,0.9479688
1524,3.30E-02,0.9489164
1526,3.23E-02,0.9496156
1528,3.20E-02,0.9499578
1530,3.21E-02,0.9498948
1532,3.26E-02,0.9494442
1534,3.33E-02,0.9486912
1536,3.43E-02,0.9477677
1538,3.53E-02,0.9468309
1540,3.61E-02,0.9460365
1542,3.67E-02,0.9455149
1544,3.68E-02,0.9453503
1546,3.66E-02,0.9455681
1548,3.61E-02,0.9461328
1550,0.0352718,0.946954
1552,3.43E-02,0.9479014
1554,3.34E-02,0.9488256
1556,3.27E-02,0.9495833
1558,3.22E-02,0.9500596
1560,3.21E-02,0.9501872
1562,3.24E-02,0.9499571
1564,3.29E-02,0.949419
1566,3.37E-02,0.9486711
1568,3.46E-02,0.9478444
1570,3.54E-02,0.9470791
1572,3.60E-02,0.9465026
1574,3.63E-02,0.9462086
1576,3.62E-02,0.9462441
1578,3.59E-02,0.9466022
1580,3.53E-02,0.9472245
1582,3.45E-02,0.948011
1584,3.37E-02,0.9488372
1586,3.29E-02,0.9495743
1588,0.0323963,0.9501106
1590,3.21E-02,0.9503703
1592,3.22E-02,0.9503249
1594,3.26E-02,0.9499982
1596,3.31E-02,0.9494603
1598,3.38E-02,0.948815
1600,3.44E-02,0.9481812
1602,3.50E-02,0.9476705
1604,3.53E-02,0.9473538
1606,0.0353712,0.9472808
1608,3.52E-02,0.9474605
1610,3.48E-02,0.947861
1612,3.42E-02,0.9484141
1614,0.0336007,0.9490272
1616,0.033023,0.9495973
1618,3.26E-02,0.9500299
1620,3.24E-02,0.9502527
1622,3.24E-02,0.95023
1624,0.0326606,0.9499672
1626,3.31E-02,0.9495101
1628,3.37E-02,0.9489383
1630,3.43E-02,0.9483493
1632,3.48E-02,0.9478441
1634,3.51E-02,0.9475083
1636,3.53E-02,0.9473987
1638,3.51E-02,0.9475327
1640,0.0347288,0.9478858
1642,3.42E-02,0.9483958
1644,0.0335918,0.9489725
1646,3.30E-02,0.9495138
1648,3.26E-02,0.9499238
1650,3.24E-02,0.9501301
1652,3.24E-02,0.9500976
1654,3.26E-02,0.9498349
1656,0.0330678,0.9493935
1658,3.36E-02,0.9488572
1660,3.41E-02,0.9483271
1662,3.45E-02,0.947907
1664,3.47E-02,0.9476718
1666,0.0347068,0.9476528
1668,3.45E-02,0.9478426
1670,3.41E-02,0.94819
1672,3.36E-02,0.9486092
1674,3.32E-02,0.9489987
1676,3.29E-02,0.9492624
1678,3.27E-02,0.9493325
1680,3.28E-02,0.949186
1682,3.31E-02,0.9488462
1684,3.35E-02,0.9483888
1686,3.39E-02,0.9479274
1688,3.42E-02,0.9475751
1690,3.43E-02,0.9474204
1692,3.41E-02,0.9475006
1694,3.37E-02,0.9477858
1696,0.0332469,0.9481788
1698,3.28E-02,0.9485341
1700,3.25E-02,0.9486942
1702,3.25E-02,0.9485351
1704,0.0329408,0.9480126
1706,3.36E-02,0.9471905
1708,3.45E-02,0.9462399
1710,3.52E-02,0.9454044
1712,3.55E-02,0.9449279
1714,3.52E-02,0.9449672
1716,3.44E-02,0.9455128
1718,3.33E-02,0.9463421
1720,3.24E-02,0.9470374
1722,3.20E-02,0.9470918
1724,3.27E-02,0.9460959
1726,3.45E-02,0.9439576
1728,3.71E-02,0.9410617
1730,3.96E-02,0.9382635
1732,4.07E-02,0.9366391
1734,0.0397533,0.937
1736,3.67E-02,0.9392759
1738,3.30E-02,0.9420286
1740,3.13E-02,0.9425925
1742,3.43E-02,0.938482
1744,4.15E-02,0.9300983
1746,4.71E-02,0.9228951
1748,4.27E-02,0.9245006
1750,3.56E-02,0.9265539
1752,9.98E-02,0.8560983
1754,0.3529411,0.6034001
1756,0.6718898,0.2945536
1758,0.8585213,0.1181629
1760,0.9363775,4.69E-02
1762,0.9675471,1.96E-02
1764,0.9809146,8.77E-03
1766,0.9872364,4.15E-03
1768,0.9905513,2.07E-03
1770,0.9924734,1.07E-03
1772,0.9936961,5.79E-04
1774,0.9945388,3.22E-04
1776,0.9951591,1.85E-04
1778,0.9956397,1.09E-04
1780,0.9960268,6.52E-05
1782,0.9963477,4.00E-05
1784,0.9966197,2.50E-05
1786,0.9968542,1.59E-05
1788,0.9970589,1.03E-05
1790,0.9972395,6.75E-06
1792,0.9974002,4.49E-06
1794,0.997544,3.02E-06
1796,0.9976736,2.06E-06
1798,0.9977909,1.42E-06
1800,0.9978977,9.88E-07
1802,0.9979955,6.94E-07
1804,0.9980851,4.92E-07
1806,0.9981675,3.52E-07
1808,0.9982433,2.54E-07
1810,0.9983134,1.85E-07
1812,0.9983784,1.36E-07
1814,0.9984386,1.00E-07
1816,0.9984946,7.48E-08
1818,0.9985468,5.61E-08
1820,0.9985955,4.24E-08
1822,0.9986411,3.22E-08
1824,0.9986838,2.46E-08
1826,0.998724,1.89E-08
1828,0.9987616,1.46E-08
1830,0.9987969,1.14E-08
1832,0.9988303,8.91E-09
1834,0.9988617,7.00E-09
1836,0.9988915,5.53E-09
1838,0.9989197,4.39E-09
1840,0.9989461,3.51E-09
1842,0.9989714,2.81E-09
1844,0.9989953,2.26E-09
1846,0.999018,1.83E-09
1848,0.9990394,1.49E-09
1850,0.9990599,1.21E-09
1852,0.9990794,9.93E-10
1854,0.9990979,8.16E-10
1856,0.9991156,6.73E-10
1858,0.9991325,5.58E-10
1860,0.9991486,4.64E-10
1862,0.9991639,3.87E-10
1864,0.9991786,3.24E-10
1866,0.9991926,2.72E-10
1868,0.9992061,2.30E-10
1870,0.9992189,1.94E-10
1872,0.9992312,1.65E-10
1874,0.999243,1.40E-10
1876,0.9992543,1.20E-10
1878,0.9992651,1.03E-10
1880,0.9992756,8.81E-11
1882,0.9992855,7.59E-11
1884,0.9992951,6.56E-11
1886,0.9993044,5.68E-11
1888,0.9993132,4.94E-11
1890,0.9993218,4.30E-11
1892,0.99933,3.76E-11
1894,0.9993378,3.29E-11
1896,0.9993455,2.89E-11
1898,0.9993528,2.54E-11
1900,0.9993598,2.24E-11
1902,0.9993666,1.99E-11
1904,0.9993732,1.76E-11
1906,0.9993795,1.56E-11
1908,0.9993857,1.39E-11
1910,0.9993915,1.25E-11
1912,0.9993972,1.11E-11
1914,0.9994026,1.00E-11
1916,0.999408,8.99E-12
1918,0.9994131,8.10E-12
1920,0.999418,7.32E-12
1922,0.9994228,6.62E-12
1924,0.9994274,6.00E-12
1926,0.9994318,5.46E-12
1928,0.9994361,4.97E-12
1930,0.9994403,4.53E-12
1932,0.9994444,4.15E-12
1934,0.9994482,3.80E-12
1936,0.999452,3.49E-12
1938,0.9994556,3.21E-12
1940,0.9994591,2.95E-12
1942,0.9994625,2.73E-12
1944,0.9994658,2.52E-12
1946,0.9994691,2.34E-12
1948,0.9994722,2.17E-12
1950,0.9994752,2.02E-12
1952,0.999478,1.88E-12
1954,0.9994808,1.76E-12
1956,0.9994836,1.64E-12
1958,0.9994862,1.54E-12
1960,0.9994888,1.44E-12
1962,0.9994913,1.36E-12
1964,0.9994937,1.28E-12
1966,0.999496,1.20E-12
1968,0.9994982,1.14E-12
1970,0.9995004,1.08E-12
1972,0.9995025,1.02E-12
1974,0.9995045,9.69E-13
1976,0.9995065,9.22E-13
1978,0.9995084,8.78E-13
1980,0.9995103,8.37E-13
1982,0.9995121,8.00E-13
1984,0.9995139,7.66E-13
1986,0.9995155,7.34E-13
1988,0.9995171,7.05E-13
1990,0.9995186,6.77E-13
1992,0.9995202,6.52E-13
1994,0.9995217,6.29E-13
1996,0.9995231,6.07E-13
1998,0.9995245,5.88E-13
2000,0.9995259,5.69E-13
2002,0.9995277,5.52E-13
2004,0.9995295,5.36E-13
2006,0.9995314,5.21E-13
2008,0.9995333,5.08E-13
2010,0.9995349,4.95E-13
2012,0.9995366,4.83E-13
2014,0.9995383,4.73E-13
2016,0.9995399,4.63E-13
2018,0.9995415,4.54E-13
2020,0.999543,4.46E-13
2022,0.9995446,4.39E-13
2024,0.999546,4.32E-13
2026,0.9995474,4.26E-13
2028,0.9995489,4.21E-13
2030,0.9995502,4.16E-13
2032,0.9995515,4.12E-13
2034,0.9995528,4.08E-13
2036,0.9995542,4.05E-13
2038,0.9995553,4.03E-13
2040,0.9995567,4.01E-13
2042,0.9995577,4.00E-13
2044,0.9995589,3.99E-13
2046,0.9995601,3.99E-13
2048,0.9995612,3.99E-13
2050,0.9995623,4.00E-13
2052,0.9995633,4.02E-13
2054,0.9995644,4.04E-13
2056,0.9995654,4.06E-13
2058,0.9995665,4.09E-13
2060,0.9995674,4.13E-13
2062,0.9995683,4.17E-13
2064,0.9995693,4.22E-13
2066,0.9995701,4.27E-13
2068,0.999571,4.33E-13
2070,0.9995719,4.40E-13
2072,0.9995728,4.47E-13
2074,0.9995736,4.55E-13
2076,0.9995744,4.64E-13
2078,0.9995753,4.73E-13
2080,0.999576,4.84E-13
2082,0.9995767,4.95E-13
2084,0.9995775,5.07E-13
2086,0.9995782,5.21E-13
2088,0.9995789,5.35E-13
2090,0.9995795,5.50E-13
2092,0.9995803,5.67E-13
2094,0.999581,5.85E-13
2096,0.9995816,6.04E-13
2098,0.9995822,6.24E-13
2100,0.9995828,6.47E-13
2102,0.9995834,6.70E-13
2104,0.9995838,6.96E-13
2106,0.9995844,7.23E-13
2108,0.9995849,7.53E-13
2110,0.9995853,7.85E-13
2112,0.9995858,8.19E-13
2114,0.9995862,8.56E-13
2116,0.9995866,8.96E-13
2118,0.9995871,9.39E-13
2120,0.9995874,9.85E-13
2122,0.9995878,1.04E-12
2124,0.9995883,1.09E-12
2126,0.9995886,1.15E-12
2128,0.999589,1.21E-12
2130,0.9995893,1.28E-12
2132,0.9995896,1.35E-12
2134,0.99959,1.43E-12
2136,0.9995903,1.52E-12
2138,0.9995906,1.62E-12
2140,0.9995908,1.72E-12
2142,0.9995911,1.83E-12
2144,0.9995915,1.96E-12
2146,0.9995917,2.09E-12
2148,0.9995919,2.24E-12
2150,0.9995922,2.40E-12
2152,0.9995924,2.57E-12
2154,0.9995926,2.76E-12
2156,0.9995928,2.97E-12
2158,0.9995931,3.20E-12
2160,0.9995933,3.46E-12
2162,0.9995935,3.74E-12
2164,0.9995937,4.05E-12
2166,0.9995938,4.39E-12
2168,0.9995941,4.76E-12
2170,0.9995942,5.18E-12
2172,0.9995943,5.64E-12
2174,0.9995945,6.16E-12
2176,0.9995947,6.73E-12
2178,0.9995947,7.36E-12
2180,0.9995948,8.07E-12
2182,0.999595,8.86E-12
2184,0.9995951,9.75E-12
2186,0.9995952,1.07E-11
2188,0.9995953,1.19E-11
2190,0.9995954,1.31E-11
2192,0.9995955,1.45E-11
2194,0.9995955,1.61E-11
2196,0.9995955,1.79E-11
2198,0.9995956,2.00E-11
2200,0.9995958,2.23E-11
2202,0.9995958,2.50E-11
2204,0.9995958,2.81E-11
2206,0.9995958,3.16E-11
2208,0.9995958,3.56E-11
2210,0.9995958,4.03E-11
2212,0.9995958,4.57E-11
2214,0.9995958,5.20E-11
2216,0.9995958,5.93E-11
2218,0.9995958,6.80E-11
2220,0.9995956,7.82E-11
2222,0.9995955,9.04E-11
2224,0.9995955,1.05E-10
2226,0.9995955,1.22E-10
2228,0.9995955,1.44E-10
2230,0.9995954,1.69E-10
2232,0.9995953,2.01E-10
2234,0.9995952,2.41E-10
2236,0.9995951,2.92E-10
2238,0.999595,3.56E-10
2240,0.9995949,4.40E-10
2242,0.9995949,5.50E-10
2244,0.9995948,6.99E-10
2246,0.9995947,9.05E-10
2248,0.9995945,1.20E-09
2250,0.9995944,1.63E-09
2252,0.9995943,2.29E-09
2254,0.9995941,3.37E-09
2256,0.999594,5.25E-09
2258,0.9995939,8.82E-09
2260,0.9995937,1.62E-08
2262,0.9995936,3.21E-08
2264,0.9995934,5.38E-08
2266,0.9995931,5.04E-08
2268,0.9995931,3.07E-08
2270,0.9995928,1.82E-08
2272,0.9995927,1.18E-08
2274,0.9995925,8.42E-09
2276,0.9995924,6.40E-09
2278,0.9995922,5.14E-09
2280,0.9995919,4.29E-09
2282,0.9995918,3.70E-09
2284,0.9995915,3.29E-09
2286,0.9995914,2.99E-09
2288,0.9995911,2.77E-09
2290,0.9995909,2.61E-09
2292,0.9995906,2.51E-09
2294,0.9995903,2.45E-09
2296,0.9995902,2.42E-09
2298,0.9995899,2.42E-09
2300,0.9995896,2.46E-09
2302,0.9995895,2.54E-09
2304,0.9995893,2.65E-09
2306,0.999589,2.81E-09
2308,0.9995888,3.03E-09
2310,0.9995887,3.32E-09
2312,0.9995884,3.70E-09
2314,0.9995883,4.21E-09
2316,0.999588,4.91E-09
2318,0.9995878,5.89E-09
2320,0.9995875,7.32E-09
2322,0.9995872,9.47E-09
2324,0.9995871,1.30E-08
2326,0.9995868,1.91E-08
2328,0.9995865,3.09E-08
2330,0.9995863,5.62E-08
2332,0.999586,1.03E-07
2334,0.9995857,1.19E-07
2336,0.9995854,6.98E-08
2338,0.9995852,3.49E-08
2340,0.999585,1.92E-08
2342,0.9995847,1.18E-08
2344,0.9995844,7.82E-09
2346,0.9995841,5.53E-09
2348,0.9995838,4.10E-09
2350,0.9995835,3.15E-09
2352,0.9995832,2.49E-09
2354,0.9995829,2.02E-09
2356,0.9995826,1.67E-09
2358,0.9995822,1.40E-09
2360,0.9995819,1.19E-09
2362,0.9995816,1.03E-09
2364,0.9995812,9.02E-10
2366,0.9995809,7.96E-10
2368,0.9995805,7.09E-10
2370,0.9995801,6.37E-10
2372,0.9995798,5.76E-10
2374,0.9995794,5.26E-10
2376,0.9995791,4.82E-10
2378,0.9995787,4.45E-10
2380,0.9995784,4.13E-10
2382,0.9995779,3.86E-10
2384,0.9995775,3.62E-10
2386,0.9995772,3.41E-10
2388,0.9995767,3.23E-10
2390,0.9995764,3.07E-10
2392,0.999576,2.93E-10
2394,0.9995756,2.81E-10
2396,0.9995751,2.71E-10
2398,0.9995747,2.62E-10
2400,0.9995743,2.54E-10
2402,0.9995739,2.47E-10
2404,0.9995733,2.42E-10
2406,0.9995729,2.37E-10
2408,0.9995725,2.33E-10
2410,0.9995721,2.30E-10
2412,0.9995716,2.28E-10
2414,0.9995711,2.26E-10
2416,0.9995708,2.26E-10
2418,0.9995703,2.26E-10
2420,0.9995698,2.27E-10
2422,0.9995693,2.28E-10
2424,0.9995688,2.30E-10
2426,0.9995683,2.33E-10
2428,0.999568,2.37E-10
2430,0.9995673,2.42E-10
2432,0.9995669,2.48E-10
2434,0.9995664,2.55E-10
2436,0.9995658,2.63E-10
2438,0.9995654,2.72E-10
2440,0.9995649,2.82E-10
2442,0.9995642,2.95E-10
2444,0.9995637,3.09E-10
2446,0.9995633,3.25E-10
2448,0.9995627,3.43E-10
2450,0.9995621,3.64E-10
2452,0.9995615,3.88E-10
2454,0.999561,4.17E-10
2456,0.9995605,4.49E-10
2458,0.9995599,4.87E-10
2460,0.9995593,5.32E-10
2462,0.9995587,5.85E-10
2464,0.9995582,6.48E-10
2466,0.9995575,7.23E-10
2468,0.9995569,8.14E-10
2470,0.9995563,9.26E-10
2472,0.9995557,1.06E-09
2474,0.9995551,1.24E-09
2476,0.9995545,1.46E-09
2478,0.9995539,1.74E-09
2480,0.9995532,2.11E-09
2482,0.9995526,2.60E-09
2484,0.9995519,3.25E-09
2486,0.9995513,4.11E-09
2488,0.9995506,5.19E-09
2490,0.9995499,6.45E-09
2492,0.9995493,7.62E-09
2494,0.9995486,8.25E-09
2496,0.999548,8.02E-09
2498,0.9995472,7.04E-09
2500,0.9995465,5.78E-09
2502,0.9995456,4.58E-09
2504,0.9995445,3.61E-09
2506,0.9995435,2.86E-09
2508,0.9995425,2.30E-09
2510,0.9995414,1.88E-09
2512,0.9995403,1.56E-09
2514,0.9995393,1.31E-09
2516,0.9995382,1.12E-09
2518,0.9995371,9.62E-10
2520,0.999536,8.39E-10
2522,0.9995348,7.39E-10
2524,0.9995338,6.57E-10
2526,0.9995326,5.89E-10
2528,0.9995315,5.32E-10
2530,0.9995304,4.84E-10
2532,0.9995292,4.42E-10
2534,0.9995279,4.07E-10
2536,0.9995269,3.76E-10
2538,0.9995257,3.50E-10
2540,0.9995244,3.27E-10
2542,0.9995233,3.07E-10
2544,0.999522,2.89E-10
2546,0.9995208,2.73E-10
2548,0.9995196,2.59E-10
2550,0.9995183,2.46E-10
2552,0.9995171,2.35E-10
2554,0.9995159,2.25E-10
2556,0.9995145,2.16E-10
2558,0.9995132,2.08E-10
2560,0.9995119,2.01E-10
2562,0.9995105,1.95E-10
2564,0.9995093,1.89E-10
2566,0.999508,1.84E-10
2568,0.9995067,1.79E-10
2570,0.9995052,1.75E-10
2572,0.9995039,1.72E-10
2574,0.9995024,1.69E-10
2576,0.999501,1.66E-10
2578,0.9994996,1.63E-10
2580,0.9994982,1.61E-10
2582,0.9994968,1.59E-10
2584,0.9994953,1.58E-10
2586,0.9994938,1.56E-10
2588,0.9994924,1.55E-10
2590,0.9994909,1.55E-10
2592,0.9994894,1.54E-10
2594,0.9994879,1.54E-10
2596,0.9994863,1.54E-10
2598,0.9994848,1.54E-10
2600,0.9994832,1.54E-10
2602,0.9994817,1.55E-10
2604,0.99948,1.56E-10
2606,0.9994784,1.57E-10
2608,0.9994768,1.58E-10
2610,0.9994751,1.59E-10
2612,0.9994735,1.61E-10
2614,0.9994718,1.63E-10
2616,0.9994702,1.65E-10
2618,0.9994684,1.67E-10
2620,0.9994667,1.70E-10
2622,0.999465,1.72E-10
2624,0.9994632,1.75E-10
2626,0.9994615,1.78E-10
2628,0.9994597,1.82E-10
2630,0.9994578,1.86E-10
2632,0.999456,1.90E-10
2634,0.9994541,1.94E-10
2636,0.9994524,1.98E-10
2638,0.9994506,2.03E-10
2640,0.9994485,2.08E-10
2642,0.9994467,2.13E-10
2644,0.9994447,2.19E-10
2646,0.9994427,2.25E-10
2648,0.9994408,2.31E-10
2650,0.9994388,2.38E-10
2652,0.9994368,2.45E-10
2654,0.9994348,2.52E-10
2656,0.9994327,2.60E-10
2658,0.9994307,2.68E-10
2660,0.9994286,2.76E-10
2662,0.9994264,2.85E-10
2664,0.9994243,2.94E-10
2666,0.9994222,3.03E-10
2668,0.9994199,3.13E-10
2670,0.9994177,3.23E-10
2672,0.9994155,3.34E-10
2674,0.9994133,3.45E-10
2676,0.9994109,3.56E-10
2678,0.9994087,3.68E-10
2680,0.9994063,3.80E-10
2682,0.999404,3.92E-10
2684,0.9994016,4.05E-10
2686,0.9993992,4.18E-10
2688,0.9993967,4.31E-10
2690,0.9993944,4.44E-10
2692,0.9993919,4.57E-10
2694,0.9993893,4.71E-10
2696,0.9993868,4.85E-10
2698,0.9993842,4.99E-10
2700,0.9993816,5.12E-10
2702,0.999379,5.26E-10
2704,0.9993764,5.40E-10
2706,0.9993736,5.54E-10
2708,0.9993709,5.68E-10
2710,0.9993681,5.81E-10
2712,0.9993653,5.95E-10
2714,0.9993625,6.08E-10
2716,0.9993597,6.21E-10
2718,0.9993567,6.33E-10
2720,0.9993538,6.46E-10
2722,0.9993509,6.58E-10
2724,0.9993479,6.70E-10
2726,0.9993448,6.81E-10
2728,0.9993418,6.93E-10
2730,0.9993387,7.04E-10
2732,0.9993355,7.15E-10
2734,0.9993323,7.25E-10
2736,0.9993291,7.36E-10
2738,0.9993258,7.46E-10
2740,0.9993225,7.56E-10
2742,0.9993191,7.66E-10
2744,0.9993157,7.76E-10
2746,0.9993122,7.86E-10
2748,0.9993088,7.95E-10
2750,0.9993052,8.05E-10
2752,0.9993016,8.15E-10
2754,0.9992979,8.25E-10
2756,0.9992942,8.35E-10
2758,0.9992905,8.46E-10
2760,0.9992867,8.56E-10
2762,0.9992828,8.67E-10
2764,0.9992789,8.78E-10
2766,0.9992748,8.90E-10
2768,0.9992709,9.02E-10
2770,0.9992669,9.15E-10
2772,0.9992626,9.28E-10
2774,0.9992585,9.41E-10
2776,0.9992542,9.55E-10
2778,0.9992499,9.70E-10
2780,0.9992455,9.86E-10
2782,0.9992409,1.00E-09
2784,0.9992363,1.02E-09
2786,0.9992317,1.04E-09
2788,0.999227,1.06E-09
2790,0.9992222,1.08E-09
2792,0.9992174,1.10E-09
2794,0.9992124,1.12E-09
2796,0.9992074,1.14E-09
2798,0.9992023,1.17E-09
2800,0.9991971,1.20E-09
2802,0.9991918,1.22E-09
2804,0.9991864,1.25E-09
2806,0.9991809,1.29E-09
2808,0.9991753,1.32E-09
2810,0.9991697,1.35E-09
2812,0.9991639,1.39E-09
2814,0.999158,1.43E-09
2816,0.9991519,1.47E-09
2818,0.9991459,1.51E-09
2820,0.9991395,1.56E-09
2822,0.9991332,1.61E-09
2824,0.9991266,1.66E-09
2826,0.9991201,1.72E-09
2828,0.9991133,1.78E-09
2830,0.9991063,1.84E-09
2832,0.9990992,1.90E-09
2834,0.999092,1.97E-09
2836,0.9990846,2.05E-09
2838,0.999077,2.13E-09
2840,0.9990692,2.21E-09
2842,0.9990613,2.30E-09
2844,0.9990533,2.39E-09
2846,0.999045,2.50E-09
2848,0.9990365,2.60E-09
2850,0.9990277,2.72E-09
2852,0.9990188,2.84E-09
2854,0.9990095,2.97E-09
2856,0.9990001,3.11E-09
2858,0.9989904,3.26E-09
2860,0.9989805,3.43E-09
2862,0.9989703,3.60E-09
2864,0.9989598,3.78E-09
2866,0.998949,3.98E-09
2868,0.9989378,4.20E-09
2870,0.9989264,4.42E-09
2872,0.9989145,4.67E-09
2874,0.9989023,4.94E-09
2876,0.9988897,5.22E-09
2878,0.9988767,5.53E-09
2880,0.9988631,5.87E-09
2882,0.9988492,6.23E-09
2884,0.9988348,6.63E-09
2886,0.9988198,7.05E-09
2888,0.9988043,7.51E-09
2890,0.9987882,8.02E-09
2892,0.9987714,8.56E-09
2894,0.998754,9.16E-09
2896,0.9987358,9.81E-09
2898,0.9987169,1.05E-08
2900,0.9986971,1.13E-08
2902,0.9986764,1.22E-08
2904,0.9986548,1.31E-08
2906,0.9986321,1.41E-08
2908,0.9986083,1.53E-08
2910,0.9985833,1.65E-08
2912,0.9985569,1.79E-08
2914,0.9985291,1.94E-08
2916,0.9984999,2.11E-08
2918,0.9984687,2.30E-08
2920,0.9984358,2.51E-08
2922,0.9984007,2.75E-08
2924,0.9983634,3.01E-08
2926,0.9983236,3.31E-08
2928,0.9982811,3.64E-08
2930,0.9982353,4.01E-08
2932,0.9981861,4.44E-08
2934,0.9981329,4.92E-08
2936,0.9980754,5.46E-08
2938,0.998013,6.09E-08
2940,0.997945,6.80E-08
2942,0.9978704,7.63E-08
2944,0.9977885,8.58E-08
2946,0.9976981,9.68E-08
2948,0.9975978,1.10E-07
2950,0.9974859,1.25E-07
2952,0.9973606,1.42E-07
2954,0.9972192,1.63E-07
2956,0.9970585,1.88E-07
2958,0.9968749,2.18E-07
2960,0.9966632,2.54E-07
2962,0.9964169,2.98E-07
2964,0.9961278,3.53E-07
2966,0.9957846,4.20E-07
2968,0.9953725,5.05E-07
2970,0.9948708,6.12E-07
2972,0.9942508,7.52E-07
2974,0.9934705,9.35E-07
2976,0.9924694,1.18E-06
2978,0.9911538,1.52E-06
2980,0.9893771,1.99E-06
2982,0.9868968,2.68E-06
2984,0.9832945,3.73E-06
2986,0.9778143,5.39E-06
2988,0.9690163,8.18E-06
2990,0.9541708,1.31E-05
2992,0.9290239,2.19E-05
2994,0.892674,3.53E-05
2996,0.8598092,4.87E-05
2998,0.8602489,5.11E-05
3000,0.8979647,3.95E-05
3002,0.9350345,2.65E-05
3004,0.9579873,1.80E-05
3006,0.9711666,1.29E-05
3008,0.9790006,9.78E-06
3010,0.9839149,7.75E-06
3012,0.9871568,6.37E-06
3014,0.989388,5.40E-06
3016,0.9909773,4.68E-06
3018,0.9921414,4.15E-06
3020,0.993013,3.74E-06
3022,0.9936773,3.42E-06
3024,0.9941901,3.17E-06
3026,0.9945893,2.97E-06
3028,0.9949018,2.81E-06
3030,0.9951464,2.68E-06
3032,0.9953369,2.58E-06
3034,0.9954834,2.50E-06
3036,0.9955934,2.44E-06
3038,0.9956728,2.40E-06
3040,0.9957258,2.37E-06
3042,0.9957557,2.36E-06
3044,0.9957651,2.36E-06
3046,0.9957557,2.36E-06
3048,0.9957287,2.38E-06
3050,0.9956854,2.41E-06
3052,0.9956262,2.46E-06
3054,0.9955511,2.51E-06
3056,0.9954607,2.57E-06
3058,0.9953543,2.65E-06
3060,0.9952316,2.73E-06
3062,0.9950917,2.84E-06
3064,0.9949337,2.95E-06
3066,0.9947566,3.08E-06
3068,0.9945588,3.23E-06
3070,0.9943383,3.40E-06
3072,0.9940934,3.59E-06
3074,0.9938208,3.81E-06
3076,0.9935185,4.05E-06
3078,0.993183,4.32E-06
3080,0.9928099,4.62E-06
3082,0.9923951,4.97E-06
3084,0.9919337,5.36E-06
3086,0.9914191,5.80E-06
3088,0.9908452,6.30E-06
3090,0.9902045,6.87E-06
3092,0.9894881,7.52E-06
3094,0.988687,8.25E-06
3096,0.9877912,9.09E-06
3098,0.9867907,1.00E-05
3100,0.9856745,1.11E-05