File: inputs/coatings/quoted_old/materionJ+HDBS.csv
Preliminary design data,,
1901,,
Wavelength (nm),%R,%T
600,0.7416104,0.258259
602,0.8405596,0.1592795
604,0.7325912,0.2670156
606,0.965009,3.49E-02
608,0.9941961,5.77E-03
610,0.9976826,2.29E-03
612,0.9983475,1.63E-03
614,0.9980324,1.95E-03
616,0.9957311,4.24E-03
618,0.9728919,2.71E-02
620,0.8143241,0.1855327
622,0.7342553,0.2650304
624,0.9533945,0.0464967
626,0.8694041,0.1303128
628,0.6200584,0.3796239
630,0.4781618,0.5215703
632,0.8936609,0.1062444
634,0.9366781,6.32E-02
636,0.8156478,0.1840915
638,0.9380401,0.0617874
640,0.9916603,8.30E-03
642,0.9965235,3.45E-03
644,0.9973439,2.64E-03
646,0.9966136,3.37E-03
648,0.9920927,7.89E-03
650,0.9527313,0.0472415
652,0.9498253,5.01E-02
654,0.9768496,2.31E-02
656,0.9740127,2.60E-02
658,0.9184582,0.0814672
660,0.5240341,0.4756724
662,0.8153592,0.184443
664,0.8384103,0.1614909
666,0.6404908,0.3593798
668,0.3041655,0.6953625
670,0.8695065,0.1304306
672,0.8955173,0.1044256
674,0.8112509,0.1886476
676,0.4763597,0.5233501
678,0.6726585,0.3270703
680,0.8780004,0.121913
682,0.9024706,9.74E-02
684,0.8871392,0.112753
686,0.8416387,0.1581952
688,0.7774161,0.2223237
690,0.7736473,0.2260986
692,0.8149129,0.1849115
694,0.8163534,0.183484
696,0.7441207,0.2556032
698,0.6622119,0.3371411
700,0.888454,0.1113712
702,0.9525294,4.74E-02
704,0.9716578,2.83E-02
706,0.976994,2.30E-02
708,0.9752215,2.47E-02
710,0.964227,3.57E-02
712,0.926707,7.32E-02
714,0.7693945,0.2304602
716,0.5064382,0.4933178
718,0.520153,0.4794699
720,0.6971616,0.3025239
722,0.8944581,0.1053592
724,0.9364991,6.34E-02
726,0.9527488,4.72E-02
728,0.9555987,0.0443329
730,0.9409066,5.90E-02
732,0.858445,0.1414613
734,0.5018138,0.4979087
736,0.7576095,0.2420523
738,0.9650642,3.49E-02
740,0.9802734,1.97E-02
742,0.9829526,1.70E-02
744,0.978828,2.11E-02
746,0.9597991,4.02E-02
748,0.854985,0.1449471
750,0.6132802,0.3865794
752,0.6325165,0.3671842
754,0.9079751,9.20E-02
756,0.8892307,0.1107322
758,0.6936183,0.3062861
760,0.7446514,0.2552434
762,0.9434196,5.65E-02
764,0.974201,0.0257744
766,0.9817826,1.82E-02
768,0.9821615,1.78E-02
770,0.9762929,2.37E-02
772,0.9552029,4.47E-02
774,0.8612779,0.1386119
776,0.3061811,0.6931738
778,0.7296461,0.2701884
780,0.8598482,0.1400453
782,0.8691039,0.1307308
784,0.8217062,0.1779013
786,0.8177279,0.1820246
788,0.850136,0.1497053
790,0.9059925,9.39E-02
792,0.9402155,5.97E-02
794,0.9580522,4.19E-02
796,0.9677961,3.22E-02
798,0.9731514,2.68E-02
800,0.975511,0.0244626
802,0.9751738,2.48E-02
804,0.9715618,2.84E-02
806,0.9629126,3.71E-02
808,0.9461556,5.38E-02
810,0.920651,7.93E-02
812,0.8971803,0.1027761
814,0.884121,0.1158261
816,0.8715454,0.1283838
818,0.8328763,0.167004
820,0.6895748,0.3100892
822,0.6841921,0.3154974
824,0.7895634,0.2102773
826,0.8719901,0.1279164
828,0.9090754,9.09E-02
830,0.9179641,8.20E-02
832,0.9040006,0.0959481
834,0.8502991,0.1496419
836,0.7135077,0.2864093
838,0.6987882,0.3011221
840,0.7726021,0.2272984
842,0.9131932,8.68E-02
844,0.950542,4.94E-02
846,0.9618741,3.81E-02
848,0.9639562,0.0359922
850,0.9591635,4.08E-02
852,0.944098,5.58E-02
854,0.9044647,9.55E-02
856,0.793973,0.2059403
858,0.6429595,0.356928
860,0.7158425,0.2840436
862,0.8068184,0.193084
864,0.9172391,8.27E-02
866,0.9411435,5.88E-02
868,0.9471377,5.28E-02
870,0.9432794,5.67E-02
872,0.9279398,7.20E-02
874,0.8906224,0.1093277
876,0.8046178,0.195319
878,0.6823816,0.3175335
880,0.6834082,0.3164871
882,0.8115464,0.1883768
884,0.9199393,8.00E-02
886,0.9527472,4.72E-02
888,0.9678802,3.21E-02
890,0.9760846,2.39E-02
892,0.980869,1.91E-02
894,0.9836601,1.63E-02
896,0.9850866,1.49E-02
898,0.9853811,1.46E-02
900,0.9844813,1.55E-02
902,0.9819476,1.80E-02
904,0.9765591,2.34E-02
906,0.9649873,3.50E-02
908,0.9366032,0.0633527
910,0.8486256,0.1513014
912,0.5789828,0.4208622
914,0.6714805,0.3283993
916,0.84591,0.1540118
918,0.5898395,0.409767
920,0.9137785,8.62E-02
922,0.9461471,5.38E-02
924,0.9526713,4.73E-02
926,0.9513186,4.86E-02
928,0.9437963,5.62E-02
930,0.9283536,7.16E-02
932,0.9002486,9.97E-02
934,0.8506981,0.1492309
936,0.7679988,0.2319139
938,0.6509546,0.3489396
940,0.5338324,0.4660472
942,0.4568929,0.5429774
944,0.3946929,0.6051649
946,0.2861473,0.713689
948,0.1444042,0.8554173
950,7.01E-02,0.9297064
952,5.72E-02,0.9425999
954,5.62E-02,0.9436991
956,5.46E-02,0.9452299
958,5.46E-02,0.9452794
960,5.61E-02,0.943736
962,5.67E-02,0.9432082
964,5.46E-02,0.9452603
966,5.12E-02,0.9486738
968,4.91E-02,0.9507681
970,5.00E-02,0.9498852
972,5.31E-02,0.9467356
974,5.62E-02,0.9436456
976,5.72E-02,0.9426822
978,5.56E-02,0.9442731
980,5.28E-02,0.9471031
982,5.07E-02,0.9491412
984,5.08E-02,0.9490741
986,5.27E-02,0.9471381
988,0.055061,0.9448178
990,0.0561053,0.9437743
992,5.51E-02,0.9448276
994,5.23E-02,0.9475372
996,4.94E-02,0.950507
998,4.76E-02,0.9522416
1000,4.78E-02,0.9520692
1002,4.94E-02,0.9505117
1004,5.10E-02,0.9488598
1006,5.15E-02,0.9483344
1008,5.05E-02,0.9493929
1010,4.84E-02,0.9515045
1012,4.64E-02,0.9534494
1014,4.59E-02,0.9540089
1016,4.72E-02,0.9526938
1018,4.98E-02,0.9500766
1020,5.24E-02,0.9474578
1022,0.0537295,0.9461565
1024,5.30E-02,0.9468383
1026,5.07E-02,0.9492021
1028,4.78E-02,0.9520986
1030,4.58E-02,0.9540569
1032,4.59E-02,0.9540218
1034,4.80E-02,0.9519179
1036,5.12E-02,0.948682
1038,5.41E-02,0.9457564
1040,0.0555037,0.9443853
1042,5.48E-02,0.9450724
1044,0.0525139,0.9473753
1046,4.98E-02,0.950085
1048,4.81E-02,0.9517495
1050,4.85E-02,0.9513828
1052,5.09E-02,0.9489805
1054,5.44E-02,0.9455096
1056,0.057499,0.9423925
1058,0.0590548,0.9408371
1060,5.85E-02,0.9413522
1062,0.0563244,0.9435675
1064,5.35E-02,0.9463981
1066,5.14E-02,0.9484641
1068,5.12E-02,0.9487202
1070,5.29E-02,0.9470055
1072,5.57E-02,0.9441617
1074,5.83E-02,0.9416114
1076,5.92E-02,0.9406662
1078,5.80E-02,0.9419438
1080,5.48E-02,0.9451059
1082,5.09E-02,0.9489601
1084,4.80E-02,0.9518573
1086,4.75E-02,0.9524022
1088,0.0497546,0.9501387
1090,5.40E-02,0.9458696
1092,5.86E-02,0.9413404
1094,6.14E-02,0.9384652
1096,6.14E-02,0.9385198
1098,5.83E-02,0.9416304
1100,5.32E-02,0.9466795
1102,4.83E-02,0.95164
1104,4.55E-02,0.9544033
1106,4.62E-02,0.9536837
1108,5.02E-02,0.9497228
1110,5.57E-02,0.944243
1112,0.0602323,0.9396628
1114,6.19E-02,0.9380317
1116,5.97E-02,0.9401698
1118,5.46E-02,0.9452721
1120,4.88E-02,0.9511243
1122,4.49E-02,0.9550182
1124,4.48E-02,0.9550908
1126,4.85E-02,0.9514068
1128,5.40E-02,0.9458905
1130,5.88E-02,0.9411371
1132,6.12E-02,0.9387308
1134,6.20E-02,0.9378427
1136,6.46E-02,0.9352569
1138,7.18E-02,0.9281334
1140,8.16E-02,0.9182923
1142,8.66E-02,0.9133024
1144,0.0777466,0.922129
1146,5.52E-02,0.944649
1148,0.0659579,0.9338821
1150,0.2087808,0.7910652
1152,0.3901097,0.6097683
1154,0.4914919,0.5084086
1156,0.540647,0.4592637
1158,0.5708649,0.4290488
1160,0.6011952,0.3987176
1162,0.6453509,0.3545608
1164,0.7085651,0.2913491
1166,0.7812657,0.2186557
1168,0.8469335,0.1529984
1170,0.8963987,0.1035439
1172,0.9299672,7.00E-02
1174,0.951759,4.82E-02
1176,0.9657915,0.0341737
1178,0.9749224,2.50E-02
1180,0.9809734,1.90E-02
1182,0.9850639,1.49E-02
1184,0.9878792,1.21E-02
1186,0.9898419,1.01E-02
1188,0.9912162,8.77E-03
1190,0.9921687,7.81E-03
1192,0.9928046,7.18E-03
1194,0.9931887,6.80E-03
1196,0.993357,6.63E-03
1198,0.9933233,6.66E-03
1200,0.9930817,6.91E-03
1202,0.9926062,7.38E-03
1204,0.9918455,8.14E-03
1206,0.990719,9.27E-03
1208,0.9891118,1.09E-02
1210,0.9868826,1.31E-02
1212,0.9839141,1.61E-02
1214,0.9802686,1.97E-02
1216,0.9764746,2.35E-02
1218,0.9736808,2.63E-02
1220,0.9730436,2.69E-02
1222,0.9746141,2.54E-02
1224,0.9773408,2.26E-02
1226,0.9801342,1.99E-02
1228,0.982436,1.76E-02
1230,0.9841008,1.59E-02
1232,0.9851561,1.48E-02
1234,0.9856645,0.0143276
1236,0.9856728,1.43E-02
1238,0.9851981,1.48E-02
1240,0.9842324,1.58E-02
1242,0.9827607,1.72E-02
1244,0.9807997,1.92E-02
1246,0.9784721,2.15E-02
1248,0.976104,2.39E-02
1250,0.974264,2.57E-02
1252,0.9735734,2.64E-02
1254,0.9742771,2.57E-02
1256,0.9760257,2.40E-02
1258,0.978184,2.18E-02
1260,0.9802369,1.98E-02
1262,0.9819122,1.81E-02
1264,0.9831151,1.69E-02
1266,0.9838346,1.62E-02
1268,0.9840841,1.59E-02
1270,0.9838722,0.0161212
1272,0.983195,1.68E-02
1274,0.982043,1.80E-02
1276,0.980428,1.96E-02
1278,0.9784392,2.16E-02
1280,0.9763237,2.37E-02
1282,0.9745288,2.55E-02
1284,0.9735789,2.64E-02
1286,0.9737995,2.62E-02
1288,0.9751114,2.49E-02
1290,0.9770952,2.29E-02
1292,0.9792528,2.07E-02
1294,0.9812188,1.88E-02
1296,0.9828058,1.72E-02
1298,0.9839507,1.60E-02
1300,0.984648,1.53E-02
1302,0.9849053,0.0150885
1304,0.9847192,1.53E-02
1306,0.9840643,1.59E-02
1308,0.9828946,1.71E-02
1310,0.9811708,0.0188226
1312,0.9789504,2.10E-02
1314,0.9765307,2.35E-02
1316,0.974384,2.56E-02
1318,0.9728722,2.71E-02
1320,0.9723336,2.77E-02
1322,0.9730691,2.69E-02
1324,0.974982,2.50E-02
1326,0.9775579,2.24E-02
1328,0.9802183,1.98E-02
1330,0.9825865,1.74E-02
1332,0.9845101,1.55E-02
1334,0.9859741,1.40E-02
1336,0.9870204,1.30E-02
1338,0.9877032,0.0122904
1340,0.9880703,1.19E-02
1342,0.988158,1.18E-02
1344,0.9879911,1.20E-02
1346,0.9875854,1.24E-02
1348,0.9869515,1.30E-02
1350,0.9861018,1.39E-02
1352,0.9850632,1.49E-02
1354,0.9838938,1.61E-02
1356,0.9826961,1.73E-02
1358,0.9816114,1.84E-02
1360,0.9807812,0.0192111
1362,0.9802803,1.97E-02
1364,0.9800482,1.99E-02
1366,0.9798384,2.02E-02
1368,0.9793632,2.06E-02
1370,0.979867,2.01E-02
1372,0.9814382,1.86E-02
1374,0.9821071,1.79E-02
1376,0.9820688,1.79E-02
1378,0.9815072,0.018484
1380,0.9804378,1.96E-02
1382,0.9788296,2.12E-02
1384,0.976661,2.33E-02
1386,0.9740133,2.60E-02
1388,0.9712114,2.88E-02
1390,0.968967,3.10E-02
1392,0.9682664,0.0317222
1394,0.9697581,3.02E-02
1396,0.9731146,2.69E-02
1398,0.977277,2.27E-02
1400,0.9812729,1.87E-02
1402,0.9846313,1.54E-02
1404,0.9872521,1.27E-02
1406,0.9892246,0.010762
1408,0.9906797,9.31E-03
1410,0.9917352,8.25E-03
1412,0.9924811,7.50E-03
1414,0.992981,7.00E-03
1416,0.9932763,6.70E-03
1418,0.9933898,6.59E-03
1420,0.9933288,6.65E-03
1422,0.9930845,6.89E-03
1424,0.9926309,7.34E-03
1426,0.9919193,8.05E-03
1428,0.9908704,9.09E-03
1430,0.9893613,1.06E-02
1432,0.987211,1.27E-02
1434,0.9841781,1.57E-02
1436,0.980028,1.99E-02
1438,0.9748201,2.51E-02
1440,0.969584,3.03E-02
1442,0.9667425,3.31E-02
1444,0.9682598,3.16E-02
1446,0.9730791,2.68E-02
1448,0.9785714,0.0213257
1450,0.9831904,1.67E-02
1452,0.9866346,1.33E-02
1454,0.9890945,1.08E-02
1456,0.9908308,9.12E-03
1458,0.9920525,7.90E-03
1460,0.9929046,7.05E-03
1462,0.9934847,6.48E-03
1464,0.993851,6.11E-03
1466,0.9940394,5.92E-03
1468,0.9940657,5.89E-03
1470,0.9939265,6.02E-03
1472,0.993589,6.35E-03
1474,0.9929467,6.96E-03
1476,0.9915388,8.27E-03
1478,0.9859056,1.34E-02
1480,0.9854205,1.40E-02
1482,0.9872617,1.26E-02
1484,0.9855341,1.43E-02
1486,0.982453,1.74E-02
1488,0.978305,2.16E-02
1490,0.9735673,2.63E-02
1492,0.9695629,3.03E-02
1494,0.9681865,3.17E-02
1496,0.9701948,2.97E-02
1498,0.9743164,2.56E-02
1500,0.9787568,2.11E-02
1502,0.9825318,1.74E-02
1504,0.9853832,1.45E-02
1506,0.9873692,0.0125165
1508,0.9885668,0.0112918
1510,0.9889392,1.09E-02
1512,0.9884681,1.12E-02
1514,0.9883209,0.0113355
1516,0.9897033,1.00E-02
1518,0.9910219,8.81E-03
1520,0.9916972,8.19E-03
1522,0.9919182,7.99E-03
1524,0.9918306,8.09E-03
1526,0.9914946,8.43E-03
1528,0.9909241,9.00E-03
1530,0.9901085,9.82E-03
1532,0.989027,1.09E-02
1534,0.9876635,1.23E-02
1536,0.9860325,1.39E-02
1538,0.9842193,1.57E-02
1540,0.9824275,1.75E-02
1542,0.9809916,1.89E-02
1544,0.9802736,1.96E-02
1546,0.9804766,0.0193764
1548,0.9814957,0.0183516
1550,0.9829829,1.69E-02
1552,0.984547,0.0152767
1554,0.9859147,1.39E-02
1556,0.9870203,1.27E-02
1558,0.9880489,1.17E-02
1560,0.9892101,1.06E-02
1562,0.990399,9.42E-03
1564,0.9913983,8.46E-03
1566,0.9921427,7.74E-03
1568,0.9926617,7.25E-03
1570,0.9929981,6.92E-03
1572,0.9931849,6.75E-03
1574,0.9932422,6.69E-03
1576,0.9931798,6.76E-03
1578,0.9929993,6.94E-03
1580,0.9926955,7.25E-03
1582,0.9922566,7.69E-03
1584,0.9916638,8.28E-03
1586,0.990891,9.05E-03
1588,0.9899051,1.00E-02
1590,0.9886683,1.13E-02
1592,0.9871423,1.28E-02
1594,0.9853008,1.46E-02
1596,0.9831512,1.67E-02
1598,0.9807692,1.91E-02
1600,0.9783347,2.15E-02
1602,0.9761354,2.37E-02
1604,0.9744953,0.0253261
1606,0.9736285,0.0261594
1608,0.9735622,2.62E-02
1610,0.974326,2.54E-02
1612,0.9760718,0.023652
1614,0.9784529,2.13E-02
1616,0.9807748,1.91E-02
1618,0.9827257,1.71E-02
1620,0.984284,1.56E-02
1622,0.9855044,1.44E-02
1624,0.9864349,1.35E-02
1626,0.9871199,1.28E-02
1628,0.9875922,0.0123449
1630,0.987876,1.21E-02
1632,0.9879869,1.20E-02
1634,0.9879332,1.20E-02
1636,0.9877177,0.0122277
1638,0.9873369,1.26E-02
1640,0.986783,1.32E-02
1642,0.9860449,1.39E-02
1644,0.9851083,1.48E-02
1646,0.9839594,1.60E-02
1648,0.9825896,1.73E-02
1650,0.9810033,1.89E-02
1652,0.9792296,0.0206844
1654,0.9773361,2.26E-02
1656,0.9754418,2.45E-02
1658,0.9737183,2.62E-02
1660,0.9723691,2.75E-02
1662,0.9715832,0.0282838
1664,0.9714715,2.84E-02
1666,0.9720259,2.78E-02
1668,0.9731282,2.67E-02
1670,0.9746001,2.52E-02
1672,0.9762624,2.36E-02
1674,0.9779673,2.19E-02
1676,0.9796073,0.0202447
1678,0.981111,1.88E-02
1680,0.9824386,1.74E-02
1682,0.9835697,1.63E-02
1684,0.9845134,1.54E-02
1686,0.9852806,0.014642
1688,0.9858858,0.0140463
1690,0.9863436,1.36E-02
1692,0.9866668,1.33E-02
1694,0.9868662,1.31E-02
1696,0.98695,1.30E-02
1698,0.9869241,1.30E-02
1700,0.9867927,1.32E-02
1702,0.9865595,1.34E-02
1704,0.9862241,1.37E-02
1706,0.9857873,1.42E-02
1708,0.9852501,1.47E-02
1710,0.9846144,1.54E-02
1712,0.9838844,0.0160902
1714,0.9830679,1.69E-02
1716,0.9821772,1.78E-02
1718,0.9812313,1.87E-02
1720,0.9802561,1.97E-02
1722,0.9792857,2.07E-02
1724,0.9783581,2.16E-02
1726,0.9775158,2.25E-02
1728,0.9767991,0.0231812
1730,0.9762419,0.0237387
1732,0.9758664,2.41E-02
1734,0.9756794,2.43E-02
1736,0.9756721,2.43E-02
1738,0.9758218,2.42E-02
1740,0.9760963,2.39E-02
1742,0.9764585,2.35E-02
1744,0.9768708,2.31E-02
1746,0.9772985,2.27E-02
1748,0.9777114,2.23E-02
1750,0.9780846,2.19E-02
1752,0.9783982,2.16E-02
1754,0.9786365,2.13E-02
1756,0.9787869,2.12E-02
1758,0.9788392,2.11E-02
1760,0.9787841,2.12E-02
1762,0.9786134,2.14E-02
1764,0.9783166,2.17E-02
1766,0.977883,2.21E-02
1768,0.9773001,2.27E-02
1770,0.9765531,2.34E-02
1772,0.9756243,2.44E-02
1774,0.974492,2.55E-02
1776,0.9731306,2.68E-02
1778,0.9715099,0.0284693
1780,0.9695942,3.04E-02
1782,0.9673451,3.26E-02
1784,0.9647124,3.53E-02
1786,0.96164,3.83E-02
1788,0.9580613,4.19E-02
1790,0.9538962,4.61E-02
1792,0.9490461,5.09E-02
1794,0.9433885,5.66E-02
1796,0.9367711,6.32E-02
1798,0.929006,0.0709643
1800,0.9198659,8.01E-02
1802,0.9090824,9.09E-02
1804,0.8963464,0.1036188
1806,0.8813166,0.1186465
1808,0.8636354,0.1363254
1810,0.8429611,0.1569972
1812,0.8190208,0.1809349
1814,0.7916877,0.2082651
1816,0.7610826,0.2388673
1818,0.7276806,0.2722664
1820,0.6923897,0.3075545
1822,0.6564884,0.3434532
1824,0.6216928,0.3782467
1826,0.5897125,0.4102253
1828,0.5619828,0.4379538
1830,0.5393832,0.4605528
1832,0.522105,0.4778306
1834,0.5097024,0.4902331
1836,0.5012754,0.4986601
1838,0.495694,0.5042413
1840,0.4917879,0.5081471
1842,0.4884679,0.5114666
1844,0.4847594,0.5151742
1846,0.479808,0.520124
1848,0.472828,0.527102
1850,0.4630403,0.536887
1852,0.4496062,0.5503176
1854,0.4315706,0.5683489
1856,0.4078438,0.5920705
1858,0.3772766,0.6226314
1860,0.338923,0.6609777
1862,0.2925955,0.7072973
1864,0.2397063,0.7601786
1866,0.1840372,0.8158407
1868,0.1315953,0.8682779
1870,8.89E-02,0.9110064
1872,6.01E-02,0.939733
1874,4.59E-02,0.9539627
1876,4.35E-02,0.9564082
1878,4.88E-02,0.9511241
1880,5.80E-02,0.9419019
1882,6.83E-02,0.9315594
1884,7.80E-02,0.921883
1886,8.60E-02,0.9138719
1888,9.19E-02,0.9079927
1890,9.55E-02,0.9043766
1892,9.70E-02,0.902947
1894,9.64E-02,0.903496
1896,9.42E-02,0.9057295
1898,9.06E-02,0.9092969
1900,8.61E-02,0.9138144
1902,8.10E-02,0.9188974
1904,7.58E-02,0.9241595
1906,7.07E-02,0.92926
1908,6.60E-02,0.93392
1910,6.20E-02,0.9379389
1912,5.87E-02,0.9412012
1914,0.0562426,0.943673
1916,5.45E-02,0.9453903
1918,5.35E-02,0.946442
1920,5.30E-02,0.9469492
1922,5.29E-02,0.947045
1924,5.31E-02,0.9468641
1926,5.34E-02,0.9465245
1928,5.38E-02,0.9461248
1930,5.42E-02,0.9457399
1932,5.45E-02,0.9454215
1934,5.47E-02,0.9451996
1936,5.48E-02,0.9450847
1938,0.0548526,0.9450703
1940,5.48E-02,0.9451364
1942,0.0546715,0.945252
1944,5.45E-02,0.945378
1946,5.45E-02,0.9454708
1948,5.44E-02,0.9454851
1950,5.45E-02,0.9453784
1952,5.48E-02,0.9451139
1954,5.53E-02,0.9446645
1956,5.59E-02,0.9440155
1958,5.68E-02,0.9431669
1960,5.78E-02,0.9421341
1962,0.0589819,0.9409443
1964,6.03E-02,0.9396453
1966,6.16E-02,0.9382925
1968,6.30E-02,0.9369487
1970,6.42E-02,0.9356798
1972,6.54E-02,0.9345526
1974,6.63E-02,0.9336259
1976,6.70E-02,0.9329526
1978,0.0673542,0.9325748
1980,6.74E-02,0.9325222
1982,6.71E-02,0.9328095
1984,6.65E-02,0.9334391
1986,6.55E-02,0.9344
1988,6.43E-02,0.9356686
1990,6.27E-02,0.9372097
1992,0.0609519,0.9389781
1994,5.90E-02,0.9409202
1996,5.70E-02,0.9429757
1998,5.48E-02,0.9450802
2000,5.28E-02,0.9471666
2002,5.07E-02,0.9491602
2004,4.88E-02,0.9509926
2006,4.71E-02,0.9525995
2008,4.57E-02,0.9539236
2010,4.47E-02,0.9549184
2012,4.40E-02,0.9555495
2014,4.36E-02,0.9557961
2016,4.37E-02,0.9556524
2018,0.0441796,0.9551272
2020,4.50E-02,0.9542444
2022,4.61E-02,0.9530408
2024,4.75E-02,0.9515648
2026,0.0491702,0.9498745
2028,5.09E-02,0.9480339
2030,5.28E-02,0.9461114
2032,5.47E-02,0.9441757
2034,5.65E-02,0.942294
2036,5.82E-02,0.9405292
2038,5.97E-02,0.938938
2040,6.10E-02,0.937569
2042,6.21E-02,0.9364619
2044,6.28E-02,0.9356464
2046,6.33E-02,0.9351421
2048,6.34E-02,0.934958
2050,6.32E-02,0.9350932
2052,6.27E-02,0.9355367
2054,6.19E-02,0.9362687
2056,6.09E-02,0.9372612
2058,5.96E-02,0.938479
2060,5.81E-02,0.9398775
2062,5.65E-02,0.9414132
2064,5.48E-02,0.9430366
2066,5.31E-02,0.9446961
2068,5.14E-02,0.9463398
2070,4.98E-02,0.9479169
2072,4.82E-02,0.9493794
2074,4.69E-02,0.9506834
2076,4.57E-02,0.9517909
2078,4.47E-02,0.9526708
2080,4.41E-02,0.9532996
2082,4.36E-02,0.953663
2084,4.35E-02,0.9537553
2086,4.36E-02,0.95358
2088,4.40E-02,0.9531494
2090,4.46E-02,0.952484
2092,4.54E-02,0.951611
2094,0.0463847,0.9505641
2096,4.75E-02,0.9493812
2098,4.87E-02,0.9481034
2100,5.00E-02,0.9467735
2102,5.13E-02,0.9454341
2104,5.26E-02,0.944127
2106,5.37E-02,0.9428913
2108,5.48E-02,0.9417628
2110,5.58E-02,0.9407728
2112,5.65E-02,0.9399477
2114,5.71E-02,0.9393081
2116,5.75E-02,0.938869
2118,5.77E-02,0.9386394
2120,5.76E-02,0.9386222
2122,5.74E-02,0.9388144
2124,5.69E-02,0.9392076
2126,5.63E-02,0.939788
2128,5.55E-02,0.9405372
2130,5.45E-02,0.9414326
2132,0.0534733,0.942448
2134,5.23E-02,0.9435543
2136,5.11E-02,0.9447209
2138,4.98E-02,0.9459156
2140,4.86E-02,0.9471062
2142,4.74E-02,0.9482608
2144,0.0462051,0.9493495
2146,4.51E-02,0.9503443
2148,4.42E-02,0.9512205
2150,4.34E-02,0.9519572
2152,4.28E-02,0.9525379
2154,4.23E-02,0.952952
2156,4.20E-02,0.9531925
2158,4.19E-02,0.953257
2160,4.19E-02,0.9531485
2162,4.22E-02,0.9528755
2164,4.25E-02,0.9524505
2166,4.31E-02,0.9518899
2168,0.0436839,0.9512137
2170,4.44E-02,0.9504442
2172,4.52E-02,0.9496055
2174,4.60E-02,0.948723
2176,4.69E-02,0.9478221
2178,4.77E-02,0.9469281
2180,4.86E-02,0.9460651
2182,4.93E-02,0.9452556
2184,5.00E-02,0.94452
2186,5.06E-02,0.943876
2188,5.11E-02,0.9433383
2190,5.15E-02,0.9429186
2192,5.17E-02,0.9426252
2194,5.18E-02,0.9424628
2196,5.18E-02,0.9424328
2198,0.051654,0.942533
2200,5.14E-02,0.942758
2202,5.10E-02,0.9430993
2204,5.05E-02,0.9435457
2206,4.99E-02,0.9440833
2208,4.92E-02,0.9446962
2210,4.85E-02,0.9453666
2212,4.77E-02,0.9460755
2214,4.69E-02,0.946803
2216,4.62E-02,0.9475291
2218,4.54E-02,0.9482337
2220,4.47E-02,0.9488977
2222,4.40E-02,0.9495028
2224,4.34E-02,0.9500328
2226,4.30E-02,0.9504731
2228,4.26E-02,0.9508119
2230,4.23E-02,0.9510397
2232,4.21E-02,0.9511501
2234,4.21E-02,0.9511398
2236,4.22E-02,0.9510083
2238,4.24E-02,0.9507582
2240,4.27E-02,0.950395
2242,4.31E-02,0.949927
2244,4.36E-02,0.9493644
2246,4.42E-02,0.9487199
2248,4.49E-02,0.9480079
2250,0.0456241,0.9472439
2252,4.64E-02,0.9464443
2254,4.72E-02,0.9456261
2256,4.79E-02,0.9448064
2258,4.87E-02,0.9440019
2260,4.94E-02,0.9432287
2262,5.01E-02,0.9425019
2264,5.07E-02,0.9418352
2266,5.13E-02,0.9412409
2268,5.18E-02,0.9407294
2270,5.21E-02,0.9403095
2272,5.24E-02,0.9399874
2274,0.0525869,0.9397677
2276,5.27E-02,0.9396523
2278,5.26E-02,0.9396414
2280,5.25E-02,0.9397328
2282,5.22E-02,0.9399222
2284,5.19E-02,0.9402034
2286,5.15E-02,0.9405683
2288,5.10E-02,0.9410076
2290,0.0504363,0.94151
2292,4.98E-02,0.9420636
2294,4.92E-02,0.9426553
2296,4.85E-02,0.9432715
2298,4.78E-02,0.9438984
2300,4.72E-02,0.9445223
2302,4.65E-02,0.9451296
2304,4.59E-02,0.9457075
2306,4.53E-02,0.9462442
2308,0.0447327,0.9467289
2310,4.43E-02,0.9471523
2312,4.39E-02,0.9475067
2314,4.35E-02,0.947786
2316,4.33E-02,0.947986
2318,4.31E-02,0.9481044
2320,4.30E-02,0.9481406
2322,4.30E-02,0.948096
2324,4.31E-02,0.9479737
2326,4.33E-02,0.9477781
2328,4.35E-02,0.9475154
2330,4.38E-02,0.9471928
2332,4.41E-02,0.9468186
2334,4.45E-02,0.946402
2336,4.49E-02,0.9459526
2338,4.53E-02,0.9454805
2340,4.58E-02,0.9449959
2342,4.62E-02,0.9445089
2344,4.67E-02,0.9440294
2346,4.71E-02,0.9435667
2348,0.0474852,0.9431297
2350,4.78E-02,0.9427261
2352,4.82E-02,0.9423632
2354,4.84E-02,0.9420467
2356,4.87E-02,0.9417816
2358,4.88E-02,0.9415714
2360,4.90E-02,0.9414185
2362,4.90E-02,0.9413241
2364,4.90E-02,0.9412879
2366,0.0489286,0.9413084
2368,4.88E-02,0.9413829
2370,4.86E-02,0.9415076
2372,4.84E-02,0.9416775
2374,4.82E-02,0.9418865
2376,4.79E-02,0.9421282
2378,4.76E-02,0.9423948
2380,4.72E-02,0.9426784
2382,4.69E-02,0.9429706
2384,4.65E-02,0.9432628
2386,0.0462065,0.9435464
2388,4.59E-02,0.9438131
2390,4.56E-02,0.9440549
2392,4.53E-02,0.9442642
2394,4.51E-02,0.9444342
2396,4.50E-02,0.9445592
2398,4.48E-02,0.944634
2400,4.48E-02,0.9446548
2402,4.48E-02,0.9446186
2404,4.48E-02,0.9445241
2406,4.49E-02,0.9443707
2408,4.51E-02,0.944159
2410,0.0453104,0.9438909
2412,4.56E-02,0.9435693
2414,4.59E-02,0.9431979
2416,4.63E-02,0.9427815
2418,4.67E-02,0.9423255
2420,4.72E-02,0.9418359
2422,4.76E-02,0.9413194
2424,4.81E-02,0.9407829
2426,4.86E-02,0.9402336
2428,4.92E-02,0.9396788
2430,4.97E-02,0.9391258
2432,0.0501782,0.938582
2434,5.07E-02,0.9380543
2436,5.11E-02,0.9375494
2438,5.16E-02,0.9370744
2440,5.20E-02,0.9366352
2442,5.23E-02,0.9362364
2444,0.0526165,0.935883
2446,5.29E-02,0.9355789
2448,5.31E-02,0.9353278
2450,5.32E-02,0.9351326
2452,0.0533085,0.9349952
2454,5.33E-02,0.934917
2456,0.053299,0.9348989
2458,5.32E-02,0.9349407
2460,5.30E-02,0.9350417
2462,5.28E-02,0.9352006
2464,5.26E-02,0.9354154
2466,5.22E-02,0.9356833
2468,5.18E-02,0.9360012
2470,5.14E-02,0.9363652
2472,5.09E-02,0.936771
2474,5.04E-02,0.9372135
2476,4.99E-02,0.9376872
2478,4.93E-02,0.9381856
2480,4.87E-02,0.9387017
2482,4.81E-02,0.9392275
2484,4.75E-02,0.9397539
2486,4.69E-02,0.9402704
2488,4.64E-02,0.9407651
2490,0.045831,0.9412243
2492,4.53E-02,0.9416321
2494,4.49E-02,0.9419702
2496,4.46E-02,0.9422175
2498,4.43E-02,0.9423497
2500,4.43E-02,0.9423391