File: inputs/coatings/quoted_old/materionCSDJY_HKDBS.csv
Preliminary design data,,
1551,,
Wavelength (nm),%R,%T
950,0.8254437,0.1744964
952,0.8083887,0.1915386
954,0.8287988,0.171127
956,0.8805202,0.1194187
958,0.9265823,7.34E-02
960,0.955306,0.0446602
962,0.9716246,2.83E-02
964,0.981021,1.90E-02
966,0.9866462,1.33E-02
968,0.9901631,9.82E-03
970,0.9924512,7.53E-03
972,0.9939911,6.00E-03
974,0.9950558,4.93E-03
976,0.9958067,4.18E-03
978,0.9963421,3.65E-03
980,0.9967236,3.27E-03
982,0.9969907,3.00E-03
984,0.9971684,2.82E-03
986,0.9972721,2.72E-03
988,0.9973109,2.68E-03
990,0.9972881,2.70E-03
992,0.9972026,2.79E-03
994,0.9970493,2.94E-03
996,0.9968181,3.17E-03
998,0.9964951,3.50E-03
1000,0.9960626,3.93E-03
1002,0.9955034,4.49E-03
1004,0.9948077,5.19E-03
1006,0.9939931,6.00E-03
1008,0.9931313,6.86E-03
1010,0.9923673,7.63E-03
1012,0.9918889,8.11E-03
1014,0.9918284,8.17E-03
1016,0.9921825,7.81E-03
1018,0.9928269,7.17E-03
1020,0.9935789,6.42E-03
1022,0.9942858,5.71E-03
1024,0.9948753,5.12E-03
1026,0.9953315,4.66E-03
1028,0.9956622,4.33E-03
1030,0.9958806,4.11E-03
1032,0.9959989,4.00E-03
1034,0.996025,3.97E-03
1036,0.9959632,4.03E-03
1038,0.995814,4.18E-03
1040,0.9955768,4.42E-03
1042,0.9952527,4.74E-03
1044,0.9948502,5.15E-03
1046,0.9943954,5.60E-03
1048,0.9939436,6.05E-03
1050,0.9935837,6.41E-03
1052,0.9934198,6.58E-03
1054,0.9935215,6.47E-03
1056,0.9938784,6.12E-03
1058,0.9944069,5.59E-03
1060,0.9950001,5.00E-03
1062,0.9955718,4.42E-03
1064,0.9960765,3.92E-03
1066,0.9964964,3.50E-03
1068,0.9968312,3.16E-03
1070,0.997088,2.91E-03
1072,0.9972757,2.72E-03
1074,0.9974024,2.59E-03
1076,0.9974735,2.52E-03
1078,0.9974921,2.50E-03
1080,0.9974579,2.54E-03
1082,0.9973671,2.63E-03
1084,0.9972116,2.78E-03
1086,0.9969777,3.02E-03
1088,0.9966444,3.35E-03
1090,0.996181,3.81E-03
1092,0.9955475,4.45E-03
1094,0.994711,5.28E-03
1096,0.9936852,6.31E-03
1098,0.9925131,7.48E-03
1100,0.9912233,8.77E-03
1102,0.9900082,9.99E-03
1104,0.9892796,1.07E-02
1106,0.9893948,1.06E-02
1108,0.9903061,9.69E-03
1110,0.9916189,8.38E-03
1112,0.9929455,7.05E-03
1114,0.9940863,5.91E-03
1116,0.994993,5.00E-03
1118,0.9956864,4.31E-03
1120,0.9962059,3.79E-03
1122,0.9965898,3.41E-03
1124,0.996866,3.13E-03
1126,0.9970558,2.94E-03
1128,0.9971735,2.82E-03
1130,0.9972273,2.77E-03
1132,0.9972201,2.77E-03
1134,0.9971496,2.85E-03
1136,0.9970066,2.99E-03
1138,0.9967758,3.22E-03
1140,0.9964522,3.54E-03
1142,0.9960815,3.91E-03
1144,0.9956505,4.34E-03
1146,0.9950285,4.97E-03
1148,0.9941182,5.88E-03
1150,0.9928203,7.17E-03
1152,0.9909907,9.00E-03
1154,0.9884496,1.15E-02
1156,0.9850788,1.49E-02
1158,0.9811206,1.89E-02
1160,0.9776533,2.23E-02
1162,0.9764063,2.36E-02
1164,0.9780717,2.19E-02
1166,0.9814422,1.85E-02
1168,0.9849609,0.0150306
1170,0.9878811,1.21E-02
1172,0.9900914,9.90E-03
1174,0.9917096,8.28E-03
1176,0.9928831,7.11E-03
1178,0.9937316,6.26E-03
1180,0.9943411,5.65E-03
1182,0.9947706,5.22E-03
1184,0.9950595,4.93E-03
1186,0.995233,4.75E-03
1188,0.9953064,4.68E-03
1190,0.995287,4.70E-03
1192,0.9951755,4.81E-03
1194,0.9949664,5.01E-03
1196,0.9946474,5.33E-03
1198,0.9941984,5.78E-03
1200,0.9935899,6.38E-03
1202,0.9927817,7.19E-03
1204,0.9917186,8.24E-03
1206,0.9903336,9.62E-03
1208,0.9885572,0.0113913
1210,0.9863495,1.36E-02
1212,0.9837758,1.62E-02
1214,0.9811299,1.88E-02
1216,0.9790189,2.09E-02
1218,0.9781789,2.17E-02
1220,0.9789609,2.09E-02
1222,0.9810132,1.89E-02
1224,0.9836075,1.63E-02
1226,0.9861459,1.38E-02
1228,0.9883369,1.16E-02
1230,0.9901133,9.84E-03
1232,0.991511,8.45E-03
1234,0.9925967,7.37E-03
1236,0.9934356,6.53E-03
1238,0.9940815,5.89E-03
1240,0.9945761,5.39E-03
1242,0.9949503,5.02E-03
1244,0.9952266,4.74E-03
1246,0.9954211,4.55E-03
1248,0.9955445,4.42E-03
1250,0.9956036,4.36E-03
1252,0.9956017,4.36E-03
1254,0.9955381,4.42E-03
1256,0.9954087,4.54E-03
1258,0.9952036,4.74E-03
1260,0.9949051,5.02E-03
1262,0.9944812,0.0054158
1264,0.9938806,5.97E-03
1266,0.9930584,6.73E-03
1268,0.9921304,7.61E-03
1270,0.9913811,8.38E-03
1272,0.9906899,9.13E-03
1274,0.9897586,1.01E-02
1276,0.9884947,1.14E-02
1278,0.9869019,1.30E-02
1280,0.9850245,0.0148876
1282,0.9829745,1.69E-02
1284,0.9809666,1.89E-02
1286,0.979324,2.06E-02
1288,0.9783956,2.15E-02
1290,0.9783992,2.15E-02
1292,0.9792991,2.06E-02
1294,0.9808363,0.0190882
1296,0.9826757,0.0172557
1298,0.9845407,0.0153972
1300,0.9862617,1.37E-02
1302,0.987762,1.22E-02
1304,0.9890238,1.09E-02
1306,0.9900584,9.89E-03
1308,0.9908869,9.06E-03
1310,0.9915303,8.42E-03
1312,0.9920031,7.94E-03
1314,0.9923098,7.63E-03
1316,0.9924411,7.49E-03
1318,0.9923722,7.54E-03
1320,0.9920726,7.82E-03
1322,0.9915623,8.30E-03
1324,0.9910412,8.79E-03
1326,0.990906,8.92E-03
1328,0.9913064,8.54E-03
1330,0.9919309,7.95E-03
1332,0.9924701,7.44E-03
1334,0.9928278,7.10E-03
1336,0.9930157,6.93E-03
1338,0.9930661,6.89E-03
1340,0.9930049,6.96E-03
1342,0.9928482,7.12E-03
1344,0.9926038,7.37E-03
1346,0.9922734,7.70E-03
1348,0.9918541,8.12E-03
1350,0.9913388,8.64E-03
1352,0.9907166,9.26E-03
1354,0.9899726,1.00E-02
1356,0.9890872,1.09E-02
1358,0.9880356,1.19E-02
1360,0.9867861,1.32E-02
1362,0.9852989,0.0146815
1364,0.9835241,1.65E-02
1366,0.9813979,1.86E-02
1368,0.9788401,2.11E-02
1370,0.9757478,2.42E-02
1372,0.9719901,2.80E-02
1374,0.9673991,3.26E-02
1376,0.9617589,3.82E-02
1378,0.9547927,4.52E-02
1380,0.9461458,0.0538298
1382,0.9353926,0.0645817
1384,0.9219575,7.80E-02
1386,0.9051586,0.0948122
1388,0.8842025,0.1157661
1390,0.8582403,0.1417259
1392,0.8265046,0.1734588
1394,0.78857,0.2113904
1396,0.7447523,0.2552052
1398,0.6965694,0.3033852
1400,0.6470179,0.3529344
1402,0.6002128,0.3997379
1404,0.5606559,0.4392941
1406,0.5315367,0.4684134
1408,0.5138448,0.4861063
1410,0.5063958,0.4935568
1412,0.5066684,0.4932857
1414,0.5118061,0.4881495
1416,0.5193001,0.4806568
1418,0.5272623,0.4726955
1420,0.5344189,0.4655395
1422,0.5399816,0.459977
1424,0.5434993,0.4564592
1426,0.5447299,0.455228
1428,0.5435428,0.4564142
1430,0.5398448,0.4601109
1432,0.5335187,0.4664353
1434,0.5243648,0.475587
1436,0.5120352,0.4879139
1438,0.4959557,0.5039901
1440,0.4752379,0.5247039
1442,0.4486701,0.5512669
1444,0.4145957,0.5853356
1446,0.3713356,0.628589
1448,0.3179843,0.6819331
1450,0.2559161,0.7439942
1452,0.1903392,0.8095654
1454,0.1300394,0.8698621
1456,8.39E-02,0.9160247
1458,5.62E-02,0.9437218
1460,0.0453449,0.9545662
1462,4.63E-02,0.9536656
1464,5.35E-02,0.9464601
1466,6.28E-02,0.9370781
1468,7.19E-02,0.9280631
1470,7.92E-02,0.9207438
1472,8.43E-02,0.9156708
1474,8.70E-02,0.9129303
1476,8.76E-02,0.9123461
1478,8.63E-02,0.9135928
1480,0.0836745,0.9162642
1482,8.00E-02,0.9199157
1484,7.58E-02,0.9241059
1486,7.15E-02,0.9284279
1488,6.74E-02,0.9325349
1490,6.38E-02,0.9361607
1492,6.08E-02,0.9391314
1494,0.0585742,0.9413665
1496,5.71E-02,0.9428698
1498,5.62E-02,0.9437113
1500,5.59E-02,0.9440068
1502,5.60E-02,0.9438941
1504,0.056425,0.9435188
1506,5.69E-02,0.9430165
1508,5.74E-02,0.9425032
1510,0.0578744,0.9420713
1512,5.82E-02,0.9417866
1514,5.83E-02,0.9416904
1516,5.81E-02,0.9418007
1518,5.78E-02,0.9421155
1520,5.73E-02,0.942616
1522,5.67E-02,0.9432697
1524,5.59E-02,0.9440337
1526,5.51E-02,0.9448579
1528,5.43E-02,0.9456877
1530,5.35E-02,0.9464681
1532,5.28E-02,0.9471433
1534,0.0522794,0.9476694
1536,5.19E-02,0.9480082
1538,5.18E-02,0.9481323
1540,5.19E-02,0.9480276
1542,0.0522541,0.9476956
1544,5.28E-02,0.947148
1546,5.35E-02,0.9464111
1548,5.44E-02,0.9455217
1550,5.54E-02,0.9445254
1552,5.65E-02,0.943473
1554,5.75E-02,0.9424178
1556,5.85E-02,0.9414122
1558,5.94E-02,0.9405056
1560,6.02E-02,0.9397416
1562,6.08E-02,0.9391584
1564,6.12E-02,0.9387832
1566,6.13E-02,0.938634
1568,6.12E-02,0.9387203
1570,6.09E-02,0.9390417
1572,6.04E-02,0.9395894
1574,5.96E-02,0.9403466
1576,5.87E-02,0.9412893
1578,5.76E-02,0.9423877
1580,5.63E-02,0.9436073
1582,5.50E-02,0.944905
1584,5.37E-02,0.9462459
1586,5.24E-02,0.9475891
1588,5.11E-02,0.948894
1590,4.98E-02,0.9501217
1592,4.87E-02,0.9512362
1594,4.77E-02,0.9522055
1596,4.70E-02,0.9530024
1598,4.63E-02,0.9536057
1600,4.60E-02,0.9540008
1602,4.58E-02,0.9541796
1604,4.58E-02,0.9541417
1606,4.61E-02,0.9538933
1608,4.65E-02,0.9534474
1610,4.71E-02,0.9528232
1612,4.79E-02,0.9520448
1614,4.88E-02,0.9511413
1616,4.98E-02,0.9501442
1618,5.09E-02,0.9490876
1620,5.20E-02,0.948006
1622,5.30E-02,0.9469314
1624,5.41E-02,0.9458994
1626,5.50E-02,0.9449413
1628,5.59E-02,0.9440846
1630,5.66E-02,0.9433537
1632,5.72E-02,0.9427683
1634,5.76E-02,0.9423434
1636,5.79E-02,0.9420897
1638,5.79E-02,0.9420125
1640,5.78E-02,0.9421128
1642,5.76E-02,0.9423865
1644,5.71E-02,0.9428246
1646,5.65E-02,0.9434148
1648,5.58E-02,0.9441413
1650,5.50E-02,0.9449852
1652,5.40E-02,0.9459247
1654,5.30E-02,0.9469364
1656,5.20E-02,0.9479953
1658,5.09E-02,0.9490754
1660,4.98E-02,0.9501507
1662,0.0487535,0.9512053
1664,4.77E-02,0.9522119
1666,4.68E-02,0.9531393
1668,4.60E-02,0.9539666
1670,4.53E-02,0.9546754
1672,0.0447081,0.9552509
1674,4.43E-02,0.9556812
1676,4.40E-02,0.9559588
1678,0.0438792,0.95608
1680,4.39E-02,0.9560446
1682,4.41E-02,0.955851
1684,4.45E-02,0.9555082
1686,4.49E-02,0.9550331
1688,4.55E-02,0.9544391
1690,4.62E-02,0.9537423
1692,4.70E-02,0.9529608
1694,4.78E-02,0.9521142
1696,4.87E-02,0.9512229
1698,4.97E-02,0.9503078
1700,5.06E-02,0.9493899
1702,5.15E-02,0.9484885
1704,5.23E-02,0.9476242
1706,5.31E-02,0.946815
1708,5.39E-02,0.9460773
1710,5.45E-02,0.9454267
1712,5.51E-02,0.9448755
1714,0.0555286,0.9444327
1716,5.59E-02,0.9441055
1718,5.61E-02,0.9438989
1720,5.61E-02,0.9438151
1722,5.61E-02,0.9438531
1724,5.60E-02,0.9440104
1726,5.57E-02,0.9442822
1728,5.53E-02,0.9446613
1730,5.48E-02,0.9451385
1732,0.0542588,0.9457031
1734,5.36E-02,0.9463425
1736,5.29E-02,0.9470431
1738,5.22E-02,0.94779
1740,5.14E-02,0.9485679
1742,0.0506013,0.9493608
1744,4.98E-02,0.9501527
1746,4.90E-02,0.9509279
1748,0.0482913,0.9516709
1750,4.76E-02,0.9523674
1752,4.70E-02,0.9530038
1754,4.64E-02,0.9535681
1756,4.59E-02,0.9540498
1758,4.55E-02,0.9544399
1760,4.52E-02,0.9547318
1762,4.50E-02,0.9549212
1764,4.50E-02,0.955004
1766,4.50E-02,0.9549798
1768,4.51E-02,0.9548498
1770,4.53E-02,0.9546173
1772,4.57E-02,0.9542877
1774,4.61E-02,0.953868
1776,4.66E-02,0.9533668
1778,4.72E-02,0.9527939
1780,4.78E-02,0.9521605
1782,4.85E-02,0.951479
1784,4.92E-02,0.9507615
1786,4.99E-02,0.9500209
1788,5.07E-02,0.9492704
1790,5.14E-02,0.9485229
1792,5.22E-02,0.9477911
1794,5.29E-02,0.9470872
1796,5.35E-02,0.9464227
1798,5.42E-02,0.9458083
1800,5.47E-02,0.9452537
1802,5.52E-02,0.9447675
1804,5.56E-02,0.944357
1806,0.055936,0.9440283
1808,5.62E-02,0.9437864
1810,5.63E-02,0.9436345
1812,5.64E-02,0.9435746
1814,5.64E-02,0.9436078
1816,5.62E-02,0.9437335
1818,5.60E-02,0.943949
1820,5.57E-02,0.9442514
1822,5.53E-02,0.9446379
1824,5.49E-02,0.9451011
1826,5.43E-02,0.945634
1828,5.37E-02,0.9462289
1830,5.31E-02,0.9468774
1832,0.0523951,0.9475698
1834,5.17E-02,0.9482965
1836,5.09E-02,0.9490473
1838,5.02E-02,0.9498114
1840,4.94E-02,0.9505782
1842,4.86E-02,0.9513347
1844,4.79E-02,0.952073
1846,4.72E-02,0.9527831
1848,4.65E-02,0.9534553
1850,4.59E-02,0.9540807
1852,4.53E-02,0.9546511
1854,4.48E-02,0.9551592
1856,4.44E-02,0.9555986
1858,4.40E-02,0.9559641
1860,0.0437137,0.9562515
1862,4.35E-02,0.9564579
1864,4.34E-02,0.9565814
1866,4.33E-02,0.9566216
1868,0.0433865,0.9565789
1870,4.35E-02,0.9564552
1872,4.37E-02,0.9562533
1874,0.0439884,0.9559772
1876,4.43E-02,0.9556316
1878,4.47E-02,0.9552222
1880,4.52E-02,0.9547554
1882,4.57E-02,0.9542384
1884,4.63E-02,0.9536786
1886,4.69E-02,0.9530839
1888,4.75E-02,0.9524625
1890,4.81E-02,0.9518226
1892,4.88E-02,0.9511725
1894,4.94E-02,0.9505206
1896,5.01E-02,0.9498748
1898,5.07E-02,0.9492429
1900,5.13E-02,0.9486323
1902,5.19E-02,0.9480492
1904,5.25E-02,0.9475012
1906,5.30E-02,0.946994
1908,5.34E-02,0.9465328
1910,5.38E-02,0.9461224
1912,5.42E-02,0.9457665
1914,5.45E-02,0.9454684
1916,5.47E-02,0.9452303
1918,5.49E-02,0.9450539
1920,5.50E-02,0.9449403
1922,5.51E-02,0.9448884
1924,5.51E-02,0.9448985
1926,5.50E-02,0.9449694
1928,5.49E-02,0.945099
1930,5.47E-02,0.945285
1932,5.44E-02,0.9455242
1934,5.42E-02,0.945813
1936,5.38E-02,0.9461471
1938,5.34E-02,0.9465219
1940,5.30E-02,0.9469326
1942,5.26E-02,0.9473736
1944,5.21E-02,0.9478394
1946,5.16E-02,0.9483242
1948,5.11E-02,0.9488221
1950,5.06E-02,0.9493271
1952,5.01E-02,0.9498332
1954,4.96E-02,0.9503344
1956,0.0491427,0.9508251
1958,4.87E-02,0.9512997
1960,4.82E-02,0.951753
1962,4.78E-02,0.9521815
1964,4.74E-02,0.952579
1966,4.70E-02,0.9529414
1968,4.67E-02,0.9532651
1970,4.64E-02,0.9535469
1972,0.0461802,0.9537878
1974,4.60E-02,0.9539823
1976,4.58E-02,0.954129
1978,4.57E-02,0.9542273
1980,4.57E-02,0.9542768
1982,4.57E-02,0.9542778
1984,4.57E-02,0.9542316
1986,4.58E-02,0.9541399
1988,4.60E-02,0.9540045
1990,4.61E-02,0.9538281
1992,4.64E-02,0.9536134
1994,4.66E-02,0.9533637
1996,4.69E-02,0.9530827
1998,4.72E-02,0.9527742
2000,4.75E-02,0.9524423
2002,0.0478822,0.9520553
2004,4.83E-02,0.9516535
2006,4.86E-02,0.9512418
2008,4.90E-02,0.950825
2010,4.94E-02,0.9504082
2012,4.98E-02,0.9499959
2014,5.02E-02,0.9495927
2016,5.05E-02,0.9492032
2018,5.09E-02,0.9488314
2020,5.12E-02,0.9484814
2022,5.15E-02,0.9481565
2024,5.17E-02,0.9478602
2026,5.20E-02,0.9475952
2028,5.22E-02,0.9473642
2030,5.23E-02,0.9471691
2032,5.25E-02,0.9470117
2034,5.26E-02,0.9468932
2036,5.26E-02,0.9468145
2038,5.26E-02,0.946776
2040,5.26E-02,0.9467777
2042,5.25E-02,0.9468191
2044,5.24E-02,0.9468995
2046,5.23E-02,0.9470174
2048,5.21E-02,0.9471715
2050,5.19E-02,0.9473596
2052,5.16E-02,0.9475795
2054,5.13E-02,0.9478286
2056,5.10E-02,0.9481038
2058,5.07E-02,0.9484022
2060,5.04E-02,0.9487174
2062,5.00E-02,0.9490485
2064,4.96E-02,0.9493918
2066,4.92E-02,0.9497437
2068,0.0488538,0.9501001
2070,4.85E-02,0.9504571
2072,4.81E-02,0.950811
2074,4.77E-02,0.9511578
2076,4.73E-02,0.9514939
2078,4.70E-02,0.9518155
2080,0.0466603,0.9521193
2082,4.63E-02,0.9524021
2084,4.61E-02,0.9526607
2086,0.0458009,0.9528925
2088,4.56E-02,0.953095
2090,4.54E-02,0.9532661
2092,4.52E-02,0.9534039
2094,4.51E-02,0.9535071
2096,4.50E-02,0.9535745
2098,4.49E-02,0.9536053
2100,0.0448968,0.9535992
2102,4.49E-02,0.9535561
2104,4.50E-02,0.9534764
2106,4.51E-02,0.9533609
2108,4.52E-02,0.9532105
2110,4.53E-02,0.9530265
2112,0.0455213,0.9528107
2114,4.57E-02,0.9525649
2116,4.60E-02,0.9522913
2118,4.63E-02,0.9519923
2120,4.66E-02,0.9516704
2122,4.69E-02,0.9513284
2124,4.72E-02,0.9509692
2126,0.0475514,0.9505958
2128,4.79E-02,0.9502112
2130,4.83E-02,0.9498185
2132,4.86E-02,0.9494208
2134,4.90E-02,0.9490213
2136,4.94E-02,0.948623
2138,4.98E-02,0.9482289
2140,5.01E-02,0.9478419
2142,5.05E-02,0.9474649
2144,5.08E-02,0.9471006
2146,5.11E-02,0.9467514
2148,5.14E-02,0.9464198
2150,5.17E-02,0.9461079
2152,5.20E-02,0.9458178
2154,5.22E-02,0.9455517
2156,5.25E-02,0.9453112
2158,5.26E-02,0.9450973
2160,5.28E-02,0.9449112
2162,5.29E-02,0.9447536
2164,5.30E-02,0.9446254
2166,0.053112,0.9445271
2168,5.32E-02,0.9444588
2170,5.32E-02,0.9444207
2172,0.0531502,0.9444124
2174,5.31E-02,0.9444336
2176,5.30E-02,0.9444835
2178,5.29E-02,0.9445614
2180,5.28E-02,0.9446661
2182,5.26E-02,0.9447963
2184,5.25E-02,0.9449508
2186,5.23E-02,0.9451276
2188,5.20E-02,0.9453252
2190,5.18E-02,0.9455416
2192,5.15E-02,0.9457748
2194,5.13E-02,0.9460225
2196,0.0509694,0.9462825
2198,5.07E-02,0.9465525
2200,5.04E-02,0.9468301
2202,5.01E-02,0.9471128
2204,4.97E-02,0.9473982
2206,4.94E-02,0.9476839
2208,4.91E-02,0.9479672
2210,4.88E-02,0.9482461
2212,4.85E-02,0.9485179
2214,4.82E-02,0.9487805
2216,4.80E-02,0.9490317
2218,4.77E-02,0.9492695
2220,4.74E-02,0.9494919
2222,4.72E-02,0.9496973
2224,4.70E-02,0.9498839
2226,4.68E-02,0.9500502
2228,4.66E-02,0.9501953
2230,4.65E-02,0.9503177
2232,4.64E-02,0.9504169
2234,4.63E-02,0.9504921
2236,4.62E-02,0.9505427
2238,4.61E-02,0.9505688
2240,4.61E-02,0.95057
2242,0.0461217,0.9505468
2244,4.61E-02,0.9504994
2246,4.62E-02,0.9504284
2248,4.63E-02,0.9503344
2250,0.046356,0.9502186
2252,4.65E-02,0.9500819
2254,4.66E-02,0.9499256
2256,4.68E-02,0.9497511
2258,4.69E-02,0.9495597
2260,4.71E-02,0.9493533
2262,4.73E-02,0.9491335
2264,4.75E-02,0.9489018
2266,4.77E-02,0.9486604
2268,0.0479617,0.9484109
2270,4.82E-02,0.9481554
2272,4.84E-02,0.9478956
2274,4.87E-02,0.9476335
2276,4.89E-02,0.947371
2278,4.92E-02,0.9471099
2280,4.94E-02,0.946852
2282,4.96E-02,0.946599
2284,4.98E-02,0.9463527
2286,5.01E-02,0.9461145
2288,5.03E-02,0.9458861
2290,5.05E-02,0.9456688
2292,0.0506512,0.945464
2294,5.08E-02,0.9452727
2296,5.10E-02,0.9450961
2298,5.11E-02,0.9449351
2300,5.12E-02,0.9447907
2302,5.13E-02,0.9446634
2304,5.14E-02,0.9445538
2306,5.15E-02,0.9444624
2308,5.16E-02,0.9443895
2310,5.16E-02,0.9443351
2312,5.16E-02,0.9442995
2314,0.0515954,0.9442824
2316,5.16E-02,0.9442837
2318,5.15E-02,0.9443029
2320,5.15E-02,0.9443398
2322,0.0513959,0.9443935
2324,5.13E-02,0.9444635
2326,5.12E-02,0.944549
2328,5.11E-02,0.9446489
2330,0.0509375,0.9447623
2332,5.08E-02,0.9448882
2334,5.06E-02,0.9450252
2336,5.05E-02,0.9451721
2338,5.03E-02,0.9453275
2340,5.01E-02,0.9454901
2342,4.99E-02,0.9456584
2344,4.97E-02,0.9458309
2346,4.95E-02,0.9460061
2348,4.93E-02,0.9461824
2350,4.91E-02,0.9463583
2352,4.89E-02,0.9465322
2354,4.87E-02,0.9467026
2356,0.048537,0.9468679
2358,4.84E-02,0.9470268
2360,4.82E-02,0.9471776
2362,4.80E-02,0.9473192
2364,4.79E-02,0.9474501
2366,4.77E-02,0.9475691
2368,4.76E-02,0.9476752
2370,4.75E-02,0.9477673
2372,4.74E-02,0.9478443
2374,4.73E-02,0.9479057
2376,4.72E-02,0.9479507
2378,4.72E-02,0.9479786
2380,4.72E-02,0.9479892
2382,4.71E-02,0.9479823
2384,4.71E-02,0.9479576
2386,4.72E-02,0.9479151
2388,4.72E-02,0.9478552
2390,4.73E-02,0.9477782
2392,4.73E-02,0.9476843
2394,4.74E-02,0.9475745
2396,4.75E-02,0.9474493
2398,4.76E-02,0.9473096
2400,4.78E-02,0.9471565
2402,4.79E-02,0.9469911
2404,4.81E-02,0.9468147
2406,4.83E-02,0.9466285
2408,4.84E-02,0.9464339
2410,4.86E-02,0.9462324
2412,4.88E-02,0.9460256
2414,4.90E-02,0.9458151
2416,4.92E-02,0.9456023
2418,4.94E-02,0.945389
2420,4.96E-02,0.9451769
2422,4.98E-02,0.9449674
2424,5.00E-02,0.9447622
2426,5.01E-02,0.9445628
2428,5.03E-02,0.9443707
2430,5.05E-02,0.9441873
2432,0.0506236,0.944014
2434,5.08E-02,0.9438521
2436,0.0508974,0.9437025
2438,5.10E-02,0.9435668
2440,5.11E-02,0.9434459
2442,5.12E-02,0.9433401
2444,5.13E-02,0.9432498
2446,5.13E-02,0.9431758
2448,5.14E-02,0.9431181
2450,5.14E-02,0.9430769
2452,5.14E-02,0.9430522
2454,5.14E-02,0.9430437
2456,5.14E-02,0.9430509
2458,5.13E-02,0.9430733
2460,5.12E-02,0.94311
2462,5.12E-02,0.94316
2464,5.11E-02,0.943222
2466,5.10E-02,0.9432948
2468,5.09E-02,0.9433765
2470,5.08E-02,0.9434654
2472,5.07E-02,0.9435594
2474,5.05E-02,0.9436563
2476,5.04E-02,0.9437535
2478,5.03E-02,0.9438486
2480,5.02E-02,0.9439386
2482,5.01E-02,0.9440203
2484,5.00E-02,0.9440906
2486,0.0499117,0.944146
2488,0.0498499,0.9441829
2490,0.0498103,0.9441974
2492,4.98E-02,0.9441854
2494,0.049814,0.9441429
2496,0.0498659,0.9440654
2498,5.00E-02,0.9439484
2500,5.01E-02,0.9437874