File: inputs/coatings/quoted_old/materionH+JHGapDBS.csv
Preliminary design data,,
1901,,
Wavelength (nm),%R,%T
600,0.9642592,3.57E-02
602,0.9719337,0.0280098
604,0.9471447,5.28E-02
606,0.7477335,0.2519744
608,0.8419781,0.1578838
610,0.8976139,0.1022617
612,0.7601418,0.2391106
614,0.8675792,0.1322288
616,0.9507262,4.92E-02
618,0.9532323,4.67E-02
620,0.9308241,6.91E-02
622,0.9466072,0.0533205
624,0.9654644,3.44E-02
626,0.9616355,3.80E-02
628,0.9623551,3.74E-02
630,0.9696808,3.02E-02
632,0.9759129,2.40E-02
634,0.9901024,9.86E-03
636,0.9965584,3.41E-03
638,0.998234,1.74E-03
640,0.9986314,1.34E-03
642,0.9984389,1.53E-03
644,0.997317,2.65E-03
646,0.9921905,7.77E-03
648,0.9448262,5.51E-02
650,0.6384705,0.3613912
652,0.7025544,0.297289
654,0.6560168,0.3438529
656,0.5255976,0.4742243
658,0.7322146,0.2675717
660,0.7632905,0.2363539
662,0.8995989,0.1000812
664,0.9642123,0.0355406
666,0.9830624,1.68E-02
668,0.9891405,0.0107371
670,0.9906126,9.30E-03
672,0.9889147,1.10E-02
674,0.9810814,1.89E-02
676,0.9480692,5.19E-02
678,0.7627206,0.237155
680,0.4446473,0.5550945
682,0.6290624,0.3707931
684,0.8653598,0.1345805
686,0.9324358,6.75E-02
688,0.9331793,6.68E-02
690,0.8666152,0.133342
692,0.9495236,5.04E-02
694,0.9872739,0.0127032
696,0.99395,6.03E-03
698,0.9953954,4.58E-03
700,0.9947188,5.24E-03
702,0.9906327,9.28E-03
704,0.9740365,2.57E-02
706,0.9641389,3.54E-02
708,0.9830459,1.68E-02
710,0.9873253,1.26E-02
712,0.9845217,1.54E-02
714,0.9692228,3.07E-02
716,0.8933205,0.1066242
718,0.6306403,0.3692166
720,0.6208743,0.3789737
722,0.5630645,0.4368314
724,0.7348095,0.2651144
726,0.9084896,9.15E-02
728,0.9509357,4.90E-02
730,0.9605623,3.94E-02
732,0.9604583,0.0395251
734,0.9628577,3.71E-02
736,0.9732682,2.67E-02
738,0.983473,1.65E-02
740,0.9888042,1.12E-02
742,0.9910859,8.90E-03
744,0.9915263,8.45E-03
746,0.9900993,9.87E-03
748,0.9848747,1.51E-02
750,0.965517,3.43E-02
752,0.8933015,0.1060391
754,0.9246863,7.51E-02
756,0.9655738,0.0343576
758,0.974749,2.52E-02
760,0.9709467,2.90E-02
762,0.9469453,0.0530271
764,0.8529962,0.1469617
766,0.8365525,0.1633993
768,0.7218239,0.2780437
770,0.7665985,0.2332705
772,0.8744881,0.1254154
774,0.6924588,0.3073674
776,0.7537321,0.2461257
778,0.9318994,6.81E-02
780,0.9621029,3.79E-02
782,0.964786,3.52E-02
784,0.9469213,5.31E-02
786,0.8610299,0.1389344
788,0.8343548,0.1655974
790,0.9506494,4.93E-02
792,0.9787519,2.12E-02
794,0.9858668,1.41E-02
796,0.9872597,1.27E-02
798,0.9783026,2.17E-02
800,0.9792315,2.07E-02
802,0.9806871,1.93E-02
804,0.9642089,3.58E-02
806,0.8713563,0.1285872
808,0.7235045,0.2763771
810,0.9616807,3.83E-02
812,0.9876545,1.23E-02
814,0.9940704,5.91E-03
816,0.9965407,3.44E-03
818,0.997773,2.21E-03
820,0.9984902,1.49E-03
822,0.9989339,1.04E-03
824,0.9992077,7.69E-04
826,0.9993699,6.05E-04
828,0.9994556,5.17E-04
830,0.9994836,4.86E-04
832,0.9994568,5.09E-04
834,0.9993574,6.05E-04
836,0.9991213,8.36E-04
838,0.9985324,1.42E-03
840,0.9965975,3.35E-03
842,0.9848734,1.51E-02
844,0.9748478,2.51E-02
846,0.9948822,5.04E-03
848,0.9968777,3.04E-03
850,0.9987047,1.21E-03
852,0.9990752,8.33E-04
854,0.9992403,6.66E-04
856,0.999312,5.96E-04
858,0.9993201,5.92E-04
860,0.9992595,6.58E-04
862,0.9990835,8.41E-04
864,0.9986289,1.30E-03
866,0.9971681,2.77E-03
868,0.9879625,1.20E-02
870,0.958204,4.17E-02
872,0.9940253,5.93E-03
874,0.998268,1.69E-03
876,0.9990734,8.86E-04
878,0.9993563,6.05E-04
880,0.9994755,4.87E-04
882,0.9995191,4.44E-04
884,0.9995134,4.50E-04
886,0.9994617,5.02E-04
888,0.9993502,6.12E-04
890,0.9991416,8.20E-04
892,0.9987491,1.21E-03
894,0.9979611,2.00E-03
896,0.9961911,3.76E-03
898,0.9914685,8.48E-03
900,0.9748086,2.51E-02
902,0.8789275,0.120954
904,0.5192709,0.4804927
906,0.8311769,0.1687283
908,0.9093099,9.06E-02
910,0.9278173,7.21E-02
912,0.9287269,7.12E-02
914,0.9199329,8.00E-02
916,0.9025837,9.73E-02
918,0.8712382,0.128662
920,0.6459947,0.35375
922,0.7895423,0.2103451
924,0.7764947,0.2233974
926,0.7496634,0.2502275
928,0.7216756,0.2782145
930,0.6939255,0.3059646
932,0.6658467,0.3340437
934,0.6364199,0.3634705
936,0.6049982,0.3948915
938,0.5716134,0.4282745
940,0.5362242,0.46366
942,0.4963661,0.5035115
944,0.4429901,0.5568756
946,0.3555961,0.6442495
948,0.2164361,0.7833841
950,8.46E-02,0.9151646
952,4.76E-02,0.9522262
954,5.90E-02,0.9408816
956,6.44E-02,0.9354317
958,5.73E-02,0.9425246
960,4.91E-02,0.9507886
962,0.0491512,0.9507101
964,5.61E-02,0.9437757
966,0.0620444,0.9378246
968,6.18E-02,0.9380351
970,5.61E-02,0.9437526
972,0.0497831,0.9500885
974,4.82E-02,0.9517113
976,5.27E-02,0.9471961
978,5.97E-02,0.9402068
980,6.38E-02,0.9361042
982,6.20E-02,0.9378598
984,5.54E-02,0.944496
986,4.80E-02,0.9519041
988,4.47E-02,0.955223
990,4.79E-02,0.951986
992,5.59E-02,0.9439396
994,6.41E-02,0.9357669
996,6.79E-02,0.9319699
998,6.54E-02,0.9344965
1000,5.78E-02,0.9420436
1002,0.049146,0.9507383
1004,0.0438616,0.9560225
1006,4.47E-02,0.9551589
1008,0.0510188,0.9488674
1010,5.92E-02,0.9406983
1012,0.065093,0.9347962
1014,6.60E-02,0.9338441
1016,6.18E-02,0.9380878
1018,5.45E-02,0.9454061
1020,0.0476408,0.9522479
1022,4.45E-02,0.9553429
1024,4.65E-02,0.9534365
1026,5.20E-02,0.9478447
1028,0.0583979,0.9414939
1030,6.26E-02,0.9373079
1032,6.29E-02,0.936968
1034,0.0595097,0.9403833
1036,5.41E-02,0.9458284
1038,4.92E-02,0.9507144
1040,4.71E-02,0.9528356
1042,4.84E-02,0.9514931
1044,5.21E-02,0.9477524
1046,0.0561749,0.9437202
1048,5.84E-02,0.9414485
1050,5.78E-02,0.9420764
1052,0.0544692,0.9454265
1054,4.98E-02,0.9500675
1056,4.60E-02,0.9538691
1058,4.49E-02,0.954964
1060,4.72E-02,0.9526883
1062,5.20E-02,0.947922
1064,0.0573411,0.942557
1066,6.13E-02,0.9386429
1068,6.23E-02,0.9376118
1070,6.01E-02,0.9398282
1072,5.54E-02,0.9444664
1074,5.02E-02,0.9497386
1076,4.64E-02,0.953524
1078,4.56E-02,0.9542543
1080,4.83E-02,0.9516137
1082,0.0532866,0.9466125
1084,5.88E-02,0.9410623
1086,6.31E-02,0.9368216
1088,0.0646947,0.9352069
1090,6.32E-02,0.9366537
1092,5.93E-02,0.9405968
1094,5.43E-02,0.9456032
1096,0.0500727,0.9498277
1098,4.82E-02,0.9517257
1100,4.92E-02,0.9506979
1102,5.26E-02,0.9472828
1104,5.71E-02,0.9427963
1106,0.0611434,0.9387602
1108,6.35E-02,0.9364153
1110,6.35E-02,0.9364271
1112,6.12E-02,0.9387445
1114,5.73E-02,0.9425967
1116,5.32E-02,0.9466909
1118,0.0502543,0.9496493
1120,4.93E-02,0.9505546
1122,5.06E-02,0.9493071
1124,5.33E-02,0.9466018
1126,5.64E-02,0.943547
1128,5.87E-02,0.9412163
1130,5.96E-02,0.9403408
1132,5.87E-02,0.9411666
1134,5.65E-02,0.943419
1136,0.0535462,0.9463595
1138,5.09E-02,0.9489859
1140,4.95E-02,0.9503815
1142,4.98E-02,0.9500948
1144,5.16E-02,0.9483266
1146,5.41E-02,0.9457989
1148,5.65E-02,0.9434318
1150,5.79E-02,0.9420031
1152,5.80E-02,0.9419402
1154,5.67E-02,0.9432493
1156,0.0543794,0.9455287
1158,5.19E-02,0.9480461
1160,5.00E-02,0.9499115
1162,4.95E-02,0.9503629
1164,5.08E-02,0.9490784
1166,5.36E-02,0.9463363
1168,5.70E-02,0.9429113
1170,6.02E-02,0.9397572
1172,6.22E-02,0.9376661
1174,0.0628521,0.937058
1176,6.20E-02,0.9379338
1178,0.0599809,0.9399289
1180,5.75E-02,0.9424018
1182,5.54E-02,0.9445513
1184,5.43E-02,0.9456002
1186,0.0548631,0.9450466
1188,5.70E-02,0.9428996
1190,6.02E-02,0.9397454
1192,6.33E-02,0.936566
1194,6.55E-02,0.9343901
1196,6.60E-02,0.9339499
1198,6.44E-02,0.935481
1200,6.12E-02,0.9386967
1202,5.70E-02,0.9428872
1204,5.28E-02,0.9470943
1206,4.96E-02,0.9503109
1208,4.82E-02,0.951712
1210,4.90E-02,0.9508921
1212,5.19E-02,0.9480336
1214,5.60E-02,0.9439051
1216,6.03E-02,0.9396471
1218,6.35E-02,0.9364229
1220,6.48E-02,0.9350773
1222,6.40E-02,0.9359201
1224,6.12E-02,0.938674
1226,5.74E-02,0.942563
1228,5.34E-02,0.9464992
1230,0.0505783,0.9493347
1232,4.98E-02,0.9501429
1234,5.14E-02,0.9484829
1236,5.53E-02,0.9445683
1238,6.07E-02,0.9392578
1240,6.61E-02,0.9338401
1242,0.070235,0.929681
1244,7.21E-02,0.9278533
1246,7.10E-02,0.9288672
1248,6.74E-02,0.9325368
1250,6.19E-02,0.937996
1252,5.61E-02,0.943862
1254,5.14E-02,0.948542
1256,4.93E-02,0.95065
1258,5.05E-02,0.949433
1260,5.49E-02,0.9450492
1262,6.13E-02,0.9385678
1264,6.82E-02,0.9316703
1266,7.37E-02,0.9261895
1268,7.63E-02,0.9236422
1270,7.50E-02,0.924873
1272,0.0700786,0.9298365
1274,6.24E-02,0.9375205
1276,5.39E-02,0.9460444
1278,4.69E-02,0.95301
1280,4.38E-02,0.9561403
1282,4.58E-02,0.9540681
1284,5.30E-02,0.9469276
1286,6.35E-02,0.936408
1288,7.47E-02,0.925236
1290,8.36E-02,0.9163592
1292,8.78E-02,0.9121621
1294,8.61E-02,0.9138592
1296,7.89E-02,0.9210492
1298,6.84E-02,0.9314802
1300,0.058573,0.9413319
1302,5.35E-02,0.9464267
1304,5.57E-02,0.9442143
1306,6.46E-02,0.9353291
1308,7.63E-02,0.9235896
1310,0.0852896,0.9146116
1312,8.66E-02,0.9133161
1314,8.22E-02,0.9176728
1316,9.60E-02,0.9039162
1318,0.1731009,0.8267695
1320,0.3020878,0.6977943
1322,0.4047422,0.5951566
1324,0.4541614,0.5457484
1326,0.4703597,0.5295546
1328,0.481988,0.5179268
1330,0.5174183,0.4824969
1332,0.5908879,0.4090311
1334,0.687105,0.3128222
1336,0.7773651,0.2225723
1338,0.846239,0.1537081
1340,0.8936099,0.1063449
1342,0.9249541,7.50E-02
1344,0.9456301,5.43E-02
1346,0.9594461,4.05E-02
1348,0.9688588,3.11E-02
1350,0.9754066,2.46E-02
1352,0.9800519,1.99E-02
1354,0.9834042,1.66E-02
1356,0.9858557,1.41E-02
1358,0.9876632,1.23E-02
1360,0.9889976,1.10E-02
1362,0.9899732,1.00E-02
1364,0.9906672,9.32E-03
1366,0.9911305,8.85E-03
1368,0.9913946,8.59E-03
1370,0.9914766,8.51E-03
1372,0.9913806,8.61E-03
1374,0.9910986,8.89E-03
1376,0.9906099,9.38E-03
1378,0.9898797,1.01E-02
1380,0.9888564,1.11E-02
1382,0.9874744,0.0125128
1384,0.9856482,1.43E-02
1386,0.9832996,1.67E-02
1388,0.9804204,1.96E-02
1390,0.9772264,2.28E-02
1392,0.9743391,2.56E-02
1394,0.972602,0.0273859
1396,0.9724733,2.75E-02
1398,0.9738266,2.62E-02
1400,0.9761524,2.38E-02
1402,0.9788398,2.11E-02
1404,0.9814053,0.0185838
1406,0.9836054,0.0163839
1408,0.9853708,1.46E-02
1410,0.98672,1.33E-02
1412,0.987702,1.23E-02
1414,0.988367,1.16E-02
1416,0.9887551,1.12E-02
1418,0.9888941,1.11E-02
1420,0.9888,1.12E-02
1422,0.988481,1.15E-02
1424,0.9879436,1.20E-02
1426,0.9872054,1.28E-02
1428,0.9863107,1.37E-02
1430,0.9853391,1.47E-02
1432,0.9843901,1.56E-02
1434,0.983562,1.64E-02
1436,0.9829615,1.70E-02
1438,0.9827097,1.73E-02
1440,0.9828951,1.71E-02
1442,0.9835106,1.65E-02
1444,0.9844536,1.55E-02
1446,0.9855667,1.44E-02
1448,0.9866986,1.33E-02
1450,0.9877404,1.23E-02
1452,0.9886293,1.14E-02
1454,0.9893377,1.07E-02
1456,0.9898578,1.01E-02
1458,0.9901904,9.80E-03
1460,0.9903375,9.65E-03
1462,0.9903002,9.69E-03
1464,0.9900784,9.91E-03
1466,0.989679,1.03E-02
1468,0.9891077,1.09E-02
1470,0.9883341,1.17E-02
1472,0.9872736,1.27E-02
1474,0.9858242,1.42E-02
1476,0.983905,1.61E-02
1478,0.9814788,0.0185098
1480,0.978605,2.14E-02
1482,0.9755485,2.44E-02
1484,0.9728355,2.72E-02
1486,0.9711975,2.88E-02
1488,0.9711838,2.88E-02
1490,0.9727545,2.72E-02
1492,0.9753222,2.47E-02
1494,0.9781841,2.18E-02
1496,0.9808539,1.91E-02
1498,0.98311,1.69E-02
1500,0.9849036,1.51E-02
1502,0.9862712,0.013712
1504,0.9872562,1.27E-02
1506,0.9879082,1.21E-02
1508,0.9882631,1.17E-02
1510,0.9883392,1.16E-02
1512,0.9881364,1.18E-02
1514,0.9876338,1.23E-02
1516,0.9867862,0.013181
1518,0.9855192,0.0144428
1520,0.9837219,1.62E-02
1522,0.9812444,1.87E-02
1524,0.9779129,2.20E-02
1526,0.9736039,2.63E-02
1528,0.9684593,3.14E-02
1530,0.9632961,3.66E-02
1532,0.9598859,4.00E-02
1534,0.9601151,3.98E-02
1536,0.9641084,3.58E-02
1538,0.9700083,2.99E-02
1540,0.9758533,2.41E-02
1542,0.9806924,1.92E-02
1544,0.9844059,1.55E-02
1546,0.9871666,1.28E-02
1548,0.9891992,1.08E-02
1550,0.9906934,9.27E-03
1552,0.9917892,8.17E-03
1554,0.9925827,7.38E-03
1556,0.9931362,6.82E-03
1558,0.9934825,6.48E-03
1560,0.9936224,6.33E-03
1562,0.9935056,6.43E-03
1564,0.9929658,6.95E-03
1566,0.991511,8.36E-03
1568,0.9877079,1.21E-02
1570,0.9795653,0.0200487
1572,0.9755677,2.41E-02
1574,0.9795715,2.02E-02
1576,0.9821973,1.77E-02
1578,0.9826211,1.73E-02
1580,0.9816661,1.83E-02
1582,0.9802301,1.97E-02
1584,0.9795613,2.04E-02
1586,0.979596,2.04E-02
1588,0.9786679,2.13E-02
1590,0.9762853,2.37E-02
1592,0.9730276,2.69E-02
1594,0.9698315,3.01E-02
1596,0.9677696,3.22E-02
1598,0.9676023,3.24E-02
1600,0.9693024,3.07E-02
1602,0.9721658,2.78E-02
1604,0.975373,2.46E-02
1606,0.9783756,2.16E-02
1608,0.9809318,1.90E-02
1610,0.9829928,1.70E-02
1612,0.9845957,1.54E-02
1614,0.9858032,1.42E-02
1616,0.9866757,1.33E-02
1618,0.9872615,1.27E-02
1620,0.9875951,0.0123799
1622,0.9876999,1.23E-02
1624,0.9875792,1.24E-02
1626,0.9872286,1.27E-02
1628,0.9866306,1.33E-02
1630,0.9857544,1.42E-02
1632,0.9845554,1.54E-02
1634,0.9829757,1.70E-02
1636,0.980949,1.90E-02
1638,0.9784153,2.15E-02
1640,0.9753579,2.46E-02
1642,0.9718792,2.80E-02
1644,0.9682843,3.16E-02
1646,0.9651769,3.47E-02
1648,0.9633641,3.65E-02
1650,0.9634803,3.64E-02
1652,0.9655515,3.43E-02
1654,0.968964,3.09E-02
1656,0.9728848,2.70E-02
1658,0.9766723,2.33E-02
1660,0.9799963,1.99E-02
1662,0.9827706,1.72E-02
1664,0.98501,1.49E-02
1666,0.9867895,1.32E-02
1668,0.9881901,1.18E-02
1670,0.9892827,1.07E-02
1672,0.9901247,9.82E-03
1674,0.990759,0.0091857
1676,0.9912151,8.72E-03
1678,0.9915103,8.42E-03
1680,0.9916486,8.27E-03
1682,0.9916172,8.28E-03
1684,0.9913871,8.48E-03
1686,0.9909206,8.90E-03
1688,0.9902565,9.51E-03
1690,0.9896641,0.0100818
1692,0.9894177,1.04E-02
1694,0.9893226,1.05E-02
1696,0.9890642,1.08E-02
1698,0.9885249,1.14E-02
1700,0.9876826,1.22E-02
1702,0.9865159,1.34E-02
1704,0.9849893,1.49E-02
1706,0.9830477,1.69E-02
1708,0.9806267,1.93E-02
1710,0.97767,0.0222515
1712,0.9741652,2.58E-02
1714,0.9702071,2.97E-02
1716,0.966081,3.38E-02
1718,0.9623216,3.76E-02
1720,0.9596444,4.02E-02
1722,0.9586712,4.12E-02
1724,0.9595855,4.03E-02
1726,0.9620441,3.79E-02
1728,0.9653938,3.45E-02
1730,0.9689989,3.09E-02
1732,0.972424,2.75E-02
1734,0.975446,0.0244831
1736,0.9779885,2.19E-02
1738,0.9800519,1.99E-02
1740,0.9816641,1.83E-02
1742,0.9828489,0.0170821
1744,0.9836041,1.63E-02
1746,0.9838769,1.60E-02
1748,0.9835286,1.64E-02
1750,0.9823036,1.75E-02
1752,0.9799833,1.98E-02
1754,0.9773431,2.24E-02
1756,0.9770077,2.27E-02
1758,0.979479,2.03E-02
1760,0.9822251,1.76E-02
1762,0.9840959,0.0157978
1764,0.9851617,1.48E-02
1766,0.9856764,1.43E-02
1768,0.9858127,1.41E-02
1770,0.9856672,1.43E-02
1772,0.9852888,1.47E-02
1774,0.9846975,1.53E-02
1776,0.9838948,1.61E-02
1778,0.9828683,0.0170981
1780,0.9815938,1.84E-02
1782,0.9800394,1.99E-02
1784,0.9781541,2.18E-02
1786,0.9758742,2.41E-02
1788,0.9731172,0.0268518
1790,0.9697769,3.02E-02
1792,0.9657167,3.43E-02
1794,0.960761,0.0392063
1796,0.9546837,4.53E-02
1798,0.9471938,5.28E-02
1800,0.9379187,6.20E-02
1802,0.9263842,7.36E-02
1804,0.911996,8.80E-02
1806,0.8940299,0.1059266
1808,0.8716452,0.1283082
1810,0.8439505,0.1559992
1812,0.8101656,0.1897801
1814,0.769929,0.2300125
1816,0.7237678,0.2761694
1818,0.6736239,0.3263094
1820,0.6231175,0.3768126
1822,0.5769705,0.4229577
1824,0.5400991,0.4598287
1826,0.5154778,0.4844509
1828,0.5033579,0.4965729
1830,0.5016356,0.4982978
1832,0.5070426,0.4928932
1834,0.5162996,0.4836386
1836,0.5267603,0.4731796
1838,0.5365692,0.4633721
1840,0.544548,0.4553938
1842,0.5499799,0.4499618
1844,0.5525023,0.4474387
1846,0.5518642,0.4480754
1848,0.5478509,0.4520866
1850,0.540194,0.4597408
1852,0.5284861,0.471445
1854,0.5120916,0.4878349
1856,0.4900536,0.5098673
1858,0.4610315,0.5388826
1860,0.4233719,0.576534
1862,0.37553,0.6243667
1864,0.3171437,0.6827432
1866,0.2507838,0.7490942
1868,0.1832857,0.8165859
1870,0.124393,0.8754768
1872,8.21E-02,0.9177637
1874,5.86E-02,0.9413226
1876,5.03E-02,0.9496225
1878,5.15E-02,0.9483576
1880,5.73E-02,0.9426075
1882,6.41E-02,0.9358231
1884,0.0699582,0.9299515
1886,7.40E-02,0.9258927
1888,7.60E-02,0.9238868
1890,7.61E-02,0.9237711
1892,7.48E-02,0.9251366
1894,7.25E-02,0.9274337
1896,6.99E-02,0.9300568
1898,6.75E-02,0.9324248
1900,6.59E-02,0.9340554
1902,6.53E-02,0.9346194
1904,6.59E-02,0.9339792
1906,6.77E-02,0.9321877
1908,7.05E-02,0.9294534
1910,7.38E-02,0.9260853
1912,7.75E-02,0.9224342
1914,0.0810852,0.9188399
1916,8.43E-02,0.9155955
1918,8.70E-02,0.9129273
1920,8.89E-02,0.9109893
1922,0.0900522,0.9098762
1924,9.03E-02,0.9096032
1926,0.0897774,0.9101518
1928,8.85E-02,0.9114674
1930,8.65E-02,0.9134672
1932,8.39E-02,0.9160461
1934,8.08E-02,0.9190809
1936,0.0774968,0.9224327
1938,7.40E-02,0.9259493
1940,7.05E-02,0.9294694
1942,6.71E-02,0.9328272
1944,6.41E-02,0.9358605
1946,0.0615094,0.9384194
1948,5.96E-02,0.9403781
1950,5.83E-02,0.9416447
1952,0.0577593,0.9421699
1954,5.80E-02,0.9419523
1956,5.89E-02,0.941039
1958,6.04E-02,0.9395213
1960,6.24E-02,0.9375269
1962,0.0647283,0.9352033
1964,6.72E-02,0.9327218
1966,0.0696836,0.9302493
1968,7.20E-02,0.9279425
1970,7.40E-02,0.9259393
1972,7.56E-02,0.9243551
1974,7.67E-02,0.9232733
1976,7.72E-02,0.9227505
1978,7.71E-02,0.9228147
1980,7.65E-02,0.9234669
1982,7.53E-02,0.9246732
1984,7.35E-02,0.9263952
1986,7.14E-02,0.9285691
1988,6.88E-02,0.931116
1990,6.60E-02,0.9339441
1992,6.30E-02,0.9369528
1994,5.99E-02,0.9400359
1996,5.69E-02,0.943085
1998,5.39E-02,0.9459937
2000,5.13E-02,0.9486614
2002,4.89E-02,0.9510125
2004,4.69E-02,0.9529239
2006,4.54E-02,0.9543313
2008,0.0444919,0.9551938
2010,4.41E-02,0.9554951
2012,4.43E-02,0.955245
2014,4.50E-02,0.9544781
2016,0.0461904,0.9532514
2018,4.77E-02,0.9516407
2020,0.0495883,0.9497361
2022,5.16E-02,0.9476368
2024,0.0537641,0.945446
2026,5.59E-02,0.9432654
2028,5.79E-02,0.9411915
2030,5.97E-02,0.9393114
2032,6.13E-02,0.9377002
2034,6.25E-02,0.9364187
2036,6.34E-02,0.9355124
2038,6.38E-02,0.9350107
2040,6.38E-02,0.9349269
2042,0.0634464,0.9352583
2044,0.0626587,0.9359877
2046,6.15E-02,0.9370836
2048,6.00E-02,0.938502
2050,5.83E-02,0.9401878
2052,5.63E-02,0.9420767
2054,5.42E-02,0.9440972
2056,5.21E-02,0.9461731
2058,5.00E-02,0.9482257
2060,4.80E-02,0.9501746
2062,0.0461463,0.9519468
2064,4.46E-02,0.9534736
2066,4.33E-02,0.954695
2068,4.23E-02,0.9555624
2070,4.18E-02,0.9560403
2072,4.17E-02,0.9561083
2074,4.20E-02,0.9557614
2076,4.27E-02,0.9550101
2078,4.38E-02,0.9538797
2080,4.52E-02,0.952409
2082,4.69E-02,0.9506482
2084,4.88E-02,0.9486566
2086,5.09E-02,0.9464995
2088,5.31E-02,0.9442462
2090,5.54E-02,0.9419668
2092,5.76E-02,0.9397302
2094,5.97E-02,0.9376015
2096,6.16E-02,0.9356404
2098,6.33E-02,0.9338997
2100,6.47E-02,0.9324243
2102,6.58E-02,0.9312503
2104,6.66E-02,0.9304045
2106,6.71E-02,0.9299044
2108,6.72E-02,0.9297578
2110,6.69E-02,0.929963
2112,6.63E-02,0.9305096
2114,6.54E-02,0.9313784
2116,0.0642058,0.932542
2118,6.27E-02,0.933966
2120,6.10E-02,0.9356092
2122,5.92E-02,0.9374251
2124,5.72E-02,0.9393631
2126,5.51E-02,0.9413691
2128,5.30E-02,0.9433877
2130,5.10E-02,0.9453636
2132,4.91E-02,0.947243
2134,4.73E-02,0.948975
2136,4.57E-02,0.950514
2138,4.43E-02,0.9518204
2140,4.32E-02,0.952862
2142,4.24E-02,0.9536153
2144,0.0419011,0.9540661
2146,4.17E-02,0.9542095
2148,4.18E-02,0.9540502
2150,4.22E-02,0.9536019
2152,4.29E-02,0.9528866
2154,0.0438026,0.9519349
2156,4.49E-02,0.950782
2158,4.62E-02,0.9494668
2160,4.76E-02,0.9480322
2162,4.91E-02,0.946523
2164,5.06E-02,0.9449841
2166,5.20E-02,0.9434596
2168,5.35E-02,0.9419913
2170,5.48E-02,0.9406182
2172,5.60E-02,0.939375
2174,5.71E-02,0.938292
2176,5.79E-02,0.9373946
2178,5.86E-02,0.9367023
2180,5.90E-02,0.9362295
2182,0.0592056,0.9359845
2184,5.92E-02,0.9359699
2186,5.89E-02,0.9361829
2188,5.84E-02,0.9366147
2190,5.78E-02,0.9372517
2192,0.0568781,0.9380753
2194,5.58E-02,0.9390625
2196,5.47E-02,0.9401865
2198,5.34E-02,0.941417
2200,5.20E-02,0.9427215
2202,5.06E-02,0.9440652
2204,4.92E-02,0.9454128
2206,4.78E-02,0.9467288
2208,4.65E-02,0.9479785
2210,4.53E-02,0.9491291
2212,4.43E-02,0.9501505
2214,4.33E-02,0.9510161
2216,0.0426097,0.9517035
2218,4.21E-02,0.9521952
2220,4.17E-02,0.952479
2222,4.16E-02,0.9525482
2224,0.041723,0.9524018
2226,4.20E-02,0.9520441
2228,4.26E-02,0.951485
2230,4.33E-02,0.9507388
2232,4.41E-02,0.9498245
2234,4.52E-02,0.9487643
2236,4.63E-02,0.9475833
2238,4.75E-02,0.9463087
2240,4.89E-02,0.9449693
2242,5.02E-02,0.9435941
2244,5.15E-02,0.942212
2246,5.29E-02,0.9408513
2248,5.42E-02,0.9395389
2250,5.54E-02,0.9382998
2252,0.0564684,0.9371568
2254,0.0574608,0.9361301
2256,5.83E-02,0.9352371
2258,5.90E-02,0.9344919
2260,5.96E-02,0.9339058
2262,6.00E-02,0.9334865
2264,6.02E-02,0.9332384
2266,6.02E-02,0.9331627
2268,6.01E-02,0.9332573
2270,5.98E-02,0.933517
2272,5.93E-02,0.9339334
2274,5.87E-02,0.9344956
2276,5.79E-02,0.9351897
2278,0.0570876,0.9359998
2280,5.61E-02,0.9369078
2282,5.51E-02,0.9378942
2284,5.40E-02,0.9389382
2286,5.29E-02,0.940018
2288,5.17E-02,0.9411117
2290,0.0505866,0.9421973
2292,4.95E-02,0.9432538
2294,4.84E-02,0.9442608
2296,4.74E-02,0.9452
2298,4.65E-02,0.9460545
2300,4.57E-02,0.94681
2302,4.50E-02,0.9474549
2304,4.45E-02,0.9479802
2306,4.40E-02,0.9483799
2308,4.37E-02,0.9486512
2310,4.35E-02,0.9487941
2312,4.35E-02,0.9488113
2314,0.0435336,0.9487086
2316,4.37E-02,0.9484938
2318,4.40E-02,0.948177
2320,4.44E-02,0.9477701
2322,4.48E-02,0.9472861
2324,4.53E-02,0.9467393
2326,4.59E-02,0.9461446
2328,4.65E-02,0.945517
2330,4.71E-02,0.9448714
2332,4.77E-02,0.9442222
2334,4.83E-02,0.9435833
2336,4.89E-02,0.9429675
2338,4.95E-02,0.9423865
2340,5.00E-02,0.9418506
2342,0.0504113,0.9413685
2344,5.08E-02,0.9409475
2346,0.0511186,0.9405931
2348,5.14E-02,0.9403091
2350,5.15E-02,0.9400976
2352,5.16E-02,0.9399589
2354,5.17E-02,0.9398917
2356,5.16E-02,0.9398932
2358,5.15E-02,0.9399588
2360,0.0513664,0.9400828
2362,5.12E-02,0.9402583
2364,5.09E-02,0.9404768
2366,5.06E-02,0.9407294
2368,5.03E-02,0.9410065
2370,4.99E-02,0.9412977
2372,4.96E-02,0.9415924
2374,4.93E-02,0.9418803
2376,4.90E-02,0.942151
2378,4.87E-02,0.9423948
2380,4.84E-02,0.9426025
2382,0.0482336,0.9427659
2384,4.81E-02,0.942878
2386,4.80E-02,0.942933
2388,4.80E-02,0.9429267
2390,4.80E-02,0.9428562
2392,4.81E-02,0.9427202
2394,4.83E-02,0.9425194
2396,4.85E-02,0.9422557
2398,4.88E-02,0.9419326
2400,4.91E-02,0.9415552
2402,4.95E-02,0.9411299
2404,5.00E-02,0.940664
2406,5.04E-02,0.9401662
2408,0.0509112,0.9396456
2410,5.14E-02,0.939112
2412,5.19E-02,0.9385755
2414,5.24E-02,0.9380465
2416,5.29E-02,0.9375349
2418,5.34E-02,0.9370508
2420,5.38E-02,0.9366034
2422,5.41E-02,0.9362016
2424,5.45E-02,0.9358532
2426,5.47E-02,0.9355652
2428,5.49E-02,0.9353433
2430,5.50E-02,0.9351923
2432,5.50E-02,0.9351155
2434,0.0550039,0.9351149
2436,5.49E-02,0.9351909
2438,5.47E-02,0.9353433
2440,5.44E-02,0.9355695
2442,0.0540754,0.9358646
2444,0.0536682,0.9362229
2446,5.32E-02,0.9366368
2448,5.27E-02,0.9370975
2450,5.21E-02,0.9375943
2452,5.16E-02,0.9381149
2454,5.10E-02,0.9386457
2456,5.04E-02,0.9391712
2458,4.98E-02,0.9396749
2460,4.93E-02,0.9401389
2462,4.88E-02,0.9405439
2464,4.85E-02,0.94087
2466,0.048171,0.9410961
2468,4.80E-02,0.9412009
2470,4.80E-02,0.9411625
2472,4.81E-02,0.940959
2474,0.0484641,0.9405686
2476,4.90E-02,0.9399704
2478,4.98E-02,0.939144
2480,5.08E-02,0.9380702
2482,5.21E-02,0.9367316
2484,0.0536637,0.9351123
2486,5.55E-02,0.9331986
2488,5.77E-02,0.9309792
2490,6.02E-02,0.9284452
2492,0.0630303,0.9255907
2494,6.62E-02,0.9224124
2496,6.97E-02,0.91891
2498,7.35E-02,0.9150859
2500,7.76E-02,0.9109457