File: inputs/glass/Infrasil_Window.txt
#Wavelength (nm)	% Transmission (Unpol.)
200	77.2973
205	79.3813
210	82.7887
215	86.3003
220	88.8041
225	89.7034
230	89.2956
235	88.231
240	87.5913
245	88.3068
250	90.2098
255	92.0818
260	93.3498
265	93.9511
270	94.21508
275	94.3068
280	94.38002
285	94.42752
290	94.48662
295	94.52394
300	94.5812
305	94.5964
310	94.634
315	93.0944
320	93.1457
325	93.1709
330	93.2009
335	93.2394
340	93.2602
345	93.27921
350	93.3121
355	93.3247
360	93.3453
365	93.3642
370	93.3784
375	93.4137
380	93.4326
385	93.4503
390	93.4434
395	93.4707
400	93.4637
405	93.5068
410	93.50108
415	93.5245
420	93.5384
425	93.5378
430	93.5543
435	93.5641
440	93.5655
445	93.58329
450	93.58745
455	93.6071
460	93.611
465	93.61791
470	93.61
475	93.6355
480	93.6243
485	93.6414
490	93.64425
495	93.6554
500	93.6582
505	93.6669
510	93.6504
515	93.68902
520	93.682
525	93.6963
530	93.6999
535	93.6975
540	93.70706
545	93.7045
550	93.706
555	93.7218
560	93.7132
565	93.7135
570	93.7144
575	93.7285
580	93.7168
585	93.7336
590	93.7213
595	93.7294
600	93.7377
605	93.7512
610	93.74141
615	93.7598
620	93.7514
625	93.7546
630	93.7432
635	93.7746
640	93.7524
645	93.757
650	93.7629
655	93.7696
660	93.7793
665	93.7874
670	93.7823
675	93.7727
680	93.779
685	93.8002
690	93.7819
695	93.78946
700	93.7964
705	93.80325
710	93.81
715	93.7938
720	93.8293
725	93.8082
730	93.825
735	93.8222
740	93.8213
745	93.842
750	93.8398
755	93.8367
760	93.8373
765	93.8402
770	93.8559
775	93.857
780	93.8605
785	93.8743
790	93.8775
795	93.8838
800	93.8845
805	93.8989
810	93.8997
815	93.9173
820	93.9189
825	93.9458
830	93.9803
835	93.9725
840	93.9989
845	93.968
850	93.9496
855	93.9772
860	94.2757
865	94.2566
870	94.2218
875	94.1944
880	94.1423
885	94.094
890	94.08
895	94.055
900	94.0093
905	94.0215
910	94.03827
915	94.0428
920	94.04348
925	94.0359
930	94.06745
935	94.06023
940	94.0806
945	94.1089
950	94.1106
955	94.1198
960	94.1297
965	94.136
970	94.16878
975	94.1726
980	94.1836
985	94.1922
990	94.2034
995	94.1891
1000	94.1782
1005	94.1942
1010	94.2073
1015	94.1959
1020	94.2109
1025	94.2027
1030	94.1948
1035	94.2072
1040	94.2114
1045	94.228
1050	94.2113
1055	94.2164
1060	94.2018
1065	94.2072
1070	94.2234
1075	94.229
1080	94.2032
1085	94.214
1090	94.2211
1095	94.2269
1100	94.2376
1105	94.2063
1110	94.2072
1115	94.2313
1120	94.2498
1125	94.2277
1130	94.2236
1135	94.235
1140	94.2452
1145	94.2391
1150	94.2413
1155	94.2569
1160	94.2541
1165	94.2662
1170	94.2628
1175	94.24703
1180	94.2392
1185	94.2702
1190	94.2697
1195	94.2617
1200	94.2972
1205	94.2826
1210	94.2634
1215	94.2714
1220	94.2889
1225	94.2945
1230	94.2755
1235	94.26397
1240	94.2991
1245	94.3166
1250	94.2959
1255	94.3237
1260	94.32538
1265	94.2982
1270	94.3253
1275	94.3221
1280	94.3106
1285	94.3358
1290	94.3343
1295	94.3477
1300	94.3395
1305	94.3264
1310	94.3489
1315	94.3402
1320	94.3657
1325	94.3528
1330	94.3703
1335	94.3459
1340	94.3651
1345	94.3473
1350	94.3378
1355	94.3167
1360	94.3372
1365	94.3465
1370	94.3253
1375	94.3347
1380	94.3063
1385	94.3072
1390	94.3316
1395	94.32104
1400	94.3904
1405	94.3839
1410	94.3457
1415	94.3663
1420	94.33714
1425	94.3264
1430	94.3613
1435	94.378
1440	94.3369
1445	94.3373
1450	94.3596
1455	94.357
1460	94.3331
1465	94.3342
1470	94.3638
1475	94.3735
1480	94.3484
1485	94.32
1490	94.3274
1495	94.3509
1500	94.3651
1505	94.3481
1510	94.3167
1515	94.289
1520	94.296
1525	94.32051
1530	94.3307
1535	94.33206
1540	94.3274
1545	94.3245
1550	94.3014
1555	94.277
1560	94.2722
1565	94.2594
1570	94.2414
1575	94.2556
1580	94.2683
1585	94.2874
1590	94.3066
1595	94.3134
1600	94.32211
1605	94.3251
1610	94.3266
1615	94.31931
1620	94.3063
1625	94.3126
1630	94.3155
1635	94.3111
1640	94.3141
1645	94.3024
1650	94.2931
1655	94.2934
1660	94.2838
1665	94.2478
1670	94.2134
1675	94.2119
1680	94.1971
1685	94.1826
1690	94.2148
1695	94.2394
1700	94.2474
1705	94.255
1710	94.2588
1715	94.2819
1720	94.2805
1725	94.2412
1730	94.2142
1735	94.2137
1740	94.2381
1745	94.2729
1750	94.2894
1755	94.297
1760	94.2677
1765	94.2251
1770	94.2119
1775	94.2381
1780	94.3117
1785	94.3436
1790	94.30234
1795	94.2683
1800	94.2439
1805	94.2528
1810	94.2927
1815	94.3214
1820	94.2584
1825	94.2192
1830	94.29453
1835	94.3467
1840	94.29337
1845	94.2718
1850	94.2765
1855	94.2928
1860	94.3212
1865	94.3292
1870	94.2731
1875	94.2992
1880	94.3611
1885	94.3323
1890	94.3311
1895	94.4085
1900	94.3921
1905	94.3539
1910	94.417
1915	94.46426
1920	94.3979
1925	94.3509
1930	94.3881
1935	94.3699
1940	94.29889
1945	94.3162
1950	94.377
1955	94.3331
1960	94.3433
1965	94.4306
1970	94.3689
1975	94.3584
1980	94.44458
1985	94.4023
1990	94.3677
1995	94.4525
2000.07	94.6699
2004.86	94.613
2009.94	94.8377
2015.02	95.1498
2020.1	94.9197
2024.89	94.5839
2029.97	94.8832
2035.04	94.7075
2039.837	94.9997
2044.91	94.8366
2049.98	94.821
2054.77	94.6042
2059.84	94.7612
2064.92	94.6712
2069.99	94.763
2074.77	94.6448
2079.84	94.5483
2084.91	94.661
2089.97	94.5554
2094.76	94.7735
2099.82	94.8709
2104.89	94.668
2109.95	94.7991
2114.73	94.6037
2119.79	94.6332
2124.85	94.8815
2129.91	94.8949
2134.69	94.2831
2139.75	94.5514
2144.81	94.7684
2149.86	94.5227
2154.64	94.8449
2159.69	94.8916
2164.75	94.5713
2169.8	94.3205
2174.57	94.5896
2179.62	94.9707
2184.67	94.6446
2189.72	95.0022
2194.77	94.8402
2199.54	94.777
2204.59	94.702
2209.63	94.8059
2214.68	95.0415
2219.72	94.6416
2224.49	94.9383
2229.53	94.3309
2234.57	94.4198
2239.61	94.775
2244.65	94.4058
2249.69	94.6054
2254.45	94.606
2259.49	95.0149
2264.53	94.7604
2269.56	94.4195
2274.6	94.4147
2279.63	94.7448
2284.66	94.7427
2289.42	94.7322
2294.45	94.6408
2299.48	94.7561
2304.51	94.8429
2309.54	94.6545
2314.56	94.6924
2319.59	94.81
2324.34	94.7036
2329.36	94.5231
2334.39	94.9162
2339.41	94.6317
2344.43	94.7083
2349.45	94.4256
2354.47	94.7365
2359.49	94.6967
2364.51	94.7533
2369.25	94.7337
2374.27	94.6434
2379.28	94.3814
2384.3	94.7135
2389.31	94.4861
2394.32	94.8736
2399.34	94.5434
2404.35	94.7979
2409.36	94.2855
2414.37	94.658
2419.38	94.7053
2424.38	94.7697
2429.39	94.493
2434.39	94.69
2439.4	94.7584
2444.12	94.6487
2449.13	95.1145
2454.13	94.6614
2459.13	94.7482
2464.13	94.7545
2469.13	94.7062
2474.13	94.4215
2479.12	94.7787
2484.12	94.7179
2489.11	94.7021
2494.11	94.4373
2499.1	94.9331
2504.09	94.8035
2509.08	95.0129
2514.07	94.613
2519.06	94.8179
2524.05	94.3966
2529.03	94.6226
2534.02	94.9949
2539.01	94.8468
2543.99	94.7646
2548.97	94.612
2553.95	94.5602
2558.93	94.6622
2564.19	94.7408
2569.17	94.52
2574.15	94.8087
2579.12	94.4644
2584.1	94.5107
2589.07	94.6522
2594.05	94.5057
2599.02	94.7277
2603.99	94.4266
2608.96	94.8577
2613.93	94.8738
2618.9	94.8739
2623.87	94.6348
2628.83	94.3263
2634.08	94.7142
2639.04	94.898
2644	94.7263
2648.97	94.9493
2653.93	94.5032
2658.89	94.7203
2663.85	94.7108
2668.8	94.1027
2673.76	94.4582
2678.99	94.5647
2683.95	94.5939
2688.9	94.2487
2693.85	94.4149
2698.81	94.1946
2703.76	94.2526
2708.71	93.5869
2713.93	93.9919
2718.88	94.1502
2723.82	93.8005
2728.77	93.6895
2733.71	93.6827
2738.65	93.5545
2743.87	93.7435
2748.81	93.4971
2753.75	94.114
2758.69	94.1254
2763.63	94.0464
2768.84	93.8848
2773.77	93.3823
2778.71	94.1266
2783.64	93.8475
2788.57	94
2793.78	93.8321
2798.71	93.9076
2803.63	93.8601
2808.56	94.0479
2813.76	94.0105
2818.69	94.1557
2823.61	93.8298
2828.53	93.8798
2833.73	94.0907
2838.65	93.9614
2843.57	94.0674
2848.49	93.9333
2853.68	94.096
2858.59	93.8419
2863.51	93.8939
2868.42	93.7691
2873.61	93.8252
2878.52	93.7865
2883.43	93.9028
2888.61	93.7441
2893.52	93.7695
2898.43	93.8007
2903.61	93.5278
2908.51	93.7376
2913.41	93.8669
2918.59	93.8332
2923.49	93.7735
2928.39	93.7363
2933.56	93.8666
2938.46	93.9972
2943.35	93.7512
2948.52	93.6541
2953.42	93.2952
2958.31	93.6635
2963.47	93.381
2968.36	93.5772
2973.25	93.6385
2978.41	93.533
2983.3	93.41
2988.45	93.5585
2993.34	93.7392
2998.22	93.4056
3003.38	93.3217
3008.26	93.8723
3013.41	93.3107
3018.28	93.5853
3023.16	93.2422
3028.31	93.3708
3033.18	93.1143
3038.33	93.6663
3043.2	93.5284
3048.34	93.4097
3053.21	93.456
3058.35	93.2736
3063.22	93.5757
3068.35	93.5706
3073.22	93.4603
3078.08	93.4549
3083.21	93.5673
3088.08	93.3075
3093.2	93.3322
3098.06	93.4381
3103.19	93.8099
3108.05	93.3166
3113.17	93.0665
3118.02	93.5113
3123.15	93.4042
3128	93.7536
3133.12	93.517
3138.23	93.644
3143.08	93.6654
3148.2	93.2063
3153.04	93.4107
3158.15	93.501
3163	93.2608
3168.1	93.3687
3172.94	93.2545
3178.05	93.432
3183.16	92.9736
3187.99	93.8857
3193.1	93.7092